[{"success":true,"timeout":false,"failed_images":[],"failed_audio":[],"failed_video":[],"trial_type":"preload","trial_index":0,"time_elapsed":17,"internal_node_id":"0.0-0.0"},{"success":true,"trial_type":"fullscreen","trial_index":1,"time_elapsed":2185,"internal_node_id":"0.0-1.0"},{"rt":3202,"stimulus":"<p>你将开始实验 実験を開始します<b>Horizons task.</b></p><p>查看说明请按 “1” 键，跳过说明请按 “2” 键。説明を見るには “1” キーを押してください。スキップするには “2” キーを押してください。</p>","response":"2","trial_type":"html-keyboard-response","trial_index":2,"time_elapsed":5388,"internal_node_id":"0.0-2.0"},{"view_history":[{"page_index":0,"viewing_time":1755},{"page_index":1,"viewing_time":3385}],"rt":5140,"trial_type":"instructions","trial_index":3,"time_elapsed":10528,"internal_node_id":"0.0-4.0"},{"horizon":5,"rewards_L":[62,53,41,54,57],"rewards_R":[44,45,51,40,42],"key_presses":["arrowright","arrowright","arrowleft","arrowleft","arrowright"],"response_times":[5920,3698,4393,2425,2618],"outcomes":[44,45,41,54,42],"screen_resolution":1,"trial_type":"horizons-trial","trial_index":4,"time_elapsed":37452,"internal_node_id":"0.0-5.0"},{"horizon":5,"rewards_L":[20,39,38,42,30],"rewards_R":[52,41,43,48,48],"key_presses":["arrowright","arrowleft","arrowleft","arrowright","arrowright"],"response_times":[1647,1083,902,1357,2126],"outcomes":[52,39,38,48,48],"screen_resolution":1,"trial_type":"horizons-trial","trial_index":5,"time_elapsed":47397,"internal_node_id":"0.0-6.0"},{"horizon":5,"rewards_L":[24,26,40,26,23],"rewards_R":[35,45,70,36,43],"key_presses":["arrowleft","arrowright","arrowright","arrowleft","arrowleft"],"response_times":[983,394,485,378,1103],"outcomes":[24,45,70,26,23],"screen_resolution":1,"trial_type":"horizons-trial","trial_index":6,"time_elapsed":52920,"internal_node_id":"0.0-7.0"},{"horizon":10,"rewards_L":[23,39,46,36,28,44,44,32,38,30],"rewards_R":[39,51,55,37,37,31,32,39,36,49],"key_presses":["arrowright","arrowleft","arrowleft","arrowright","arrowright","arrowright","arrowleft","arrowleft","arrowleft","arrowleft"],"response_times":[1286,1221,1103,833,1559,666,1057,780,1483,1405],"outcomes":[39,39,46,37,37,31,44,32,38,30],"screen_resolution":1,"trial_type":"horizons-trial","trial_index":7,"time_elapsed":66084,"internal_node_id":"0.0-8.0"},{"horizon":5,"rewards_L":[22,28,28,29,42],"rewards_R":[39,44,41,39,31],"key_presses":["arrowright","arrowright","arrowright","arrowleft","arrowright"],"response_times":[482,476,490,730,774],"outcomes":[39,44,41,29,31],"screen_resolution":1,"trial_type":"horizons-trial","trial_index":8,"time_elapsed":70620,"internal_node_id":"0.0-9.0"},{"horizon":10,"rewards_L":[63,65,53,63,70,55,79,83,67,71],"rewards_R":[70,53,58,62,69,70,60,67,71,55],"key_presses":["arrowright","arrowleft","arrowright","arrowleft","arrowright","arrowright","arrowleft","arrowleft","arrowleft","arrowleft"],"response_times":[519,404,382,414,1696,767,496,432,489,482],"outcomes":[70,65,58,63,69,70,79,83,67,71],"screen_resolution":1,"trial_type":"horizons-trial","trial_index":9,"time_elapsed":78283,"internal_node_id":"0.0-10.0"},{"horizon":10,"rewards_L":[56,60,54,54,42,53,43,51,46,36],"rewards_R":[54,40,44,28,28,48,32,39,42,39],"key_presses":["arrowright","arrowleft","arrowright","arrowright","arrowleft","arrowleft","arrowleft","arrowright","arrowleft","arrowleft"],"response_times":[570,399,511,461,371,721,392,704,786,500],"outcomes":[54,60,44,28,42,53,43,39,46,36],"screen_resolution":1,"trial_type":"horizons-trial","trial_index":10,"time_elapsed":86172,"internal_node_id":"0.0-11.0"},{"horizon":10,"rewards_L":[49,59,36,68,53,63,62,44,61,45],"rewards_R":[48,50,34,34,40,44,26,36,36,35],"key_presses":["arrowleft","arrowleft","arrowleft","arrowright","arrowleft","arrowright","arrowleft","arrowleft","arrowleft","arrowright"],"response_times":[671,333,550,357,665,335,568,348,284,548],"outcomes":[49,59,36,34,53,44,62,44,61,35],"screen_resolution":1,"trial_type":"horizons-trial","trial_index":11,"time_elapsed":91843,"internal_node_id":"0.0-12.0"},{"horizon":10,"rewards_L":[49,28,40,37,55,60,39,44,34,37],"rewards_R":[39,42,48,34,41,42,40,51,54,41],"key_presses":["arrowright","arrowleft","arrowright","arrowright","arrowleft","arrowleft","arrowleft","arrowleft","arrowleft","arrowleft"],"response_times":[969,257,454,496,351,305,274,289,297,293],"outcomes":[39,28,48,34,55,60,39,44,34,37],"screen_resolution":1,"trial_type":"horizons-trial","trial_index":12,"time_elapsed":97060,"internal_node_id":"0.0-13.0"},{"horizon":10,"rewards_L":[62,53,78,77,57,81,61,65,65,75],"rewards_R":[38,38,45,48,35,36,46,58,46,35],"key_presses":["arrowleft","arrowleft","arrowright","arrowright","arrowleft","arrowleft","arrowleft","arrowleft","arrowleft","arrowleft"],"response_times":[431,401,353,725,1739,349,456,440,375,329],"outcomes":[62,53,45,48,57,81,61,65,65,75],"screen_resolution":1,"trial_type":"horizons-trial","trial_index":13,"time_elapsed":104123,"internal_node_id":"0.0-14.0"},{"horizon":5,"rewards_L":[63,64,84,70,59],"rewards_R":[43,55,37,51,43],"key_presses":["arrowright","arrowleft","arrowleft","arrowright","arrowleft"],"response_times":[536,340,375,843,513],"outcomes":[43,64,84,51,59],"screen_resolution":1,"trial_type":"horizons-trial","trial_index":14,"time_elapsed":108348,"internal_node_id":"0.0-15.0"},{"horizon":10,"rewards_L":[38,42,41,27,35,36,38,38,40,46],"rewards_R":[38,47,40,62,56,47,50,39,45,44],"key_presses":["arrowleft","arrowright","arrowleft","arrowleft","arrowleft","arrowleft","arrowleft","arrowleft","arrowleft","arrowleft"],"response_times":[508,428,314,436,257,376,280,293,282,394],"outcomes":[38,47,41,27,35,36,38,38,40,46],"screen_resolution":1,"trial_type":"horizons-trial","trial_index":15,"time_elapsed":113115,"internal_node_id":"0.0-16.0"},{"horizon":10,"rewards_L":[35,48,42,50,35,26,37,28,13,33],"rewards_R":[35,51,51,49,52,34,44,31,49,53],"key_presses":["arrowleft","arrowright","arrowright","arrowleft","arrowright","arrowright","arrowleft","arrowright","arrowleft","arrowright"],"response_times":[549,442,2297,671,1111,504,592,468,589,640],"outcomes":[35,51,51,50,52,34,37,31,13,53],"screen_resolution":1,"trial_type":"horizons-trial","trial_index":16,"time_elapsed":122371,"internal_node_id":"0.0-17.0"},{"horizon":10,"rewards_L":[53,37,41,45,28,35,16,38,46,25],"rewards_R":[50,63,47,62,59,55,62,54,62,56],"key_presses":["arrowright","arrowleft","arrowleft","arrowleft","arrowright","arrowright","arrowright","arrowright","arrowright","arrowright"],"response_times":[432,494,1280,376,367,593,456,505,402,346],"outcomes":[50,37,41,45,59,55,62,54,62,56],"screen_resolution":1,"trial_type":"horizons-trial","trial_index":17,"time_elapsed":128749,"internal_node_id":"0.0-18.0"},{"horizon":10,"rewards_L":[58,21,36,25,36,32,36,46,49,31],"rewards_R":[40,46,51,47,34,34,57,54,36,54],"key_presses":["arrowleft","arrowright","arrowleft","arrowright","arrowright","arrowleft","arrowright","arrowright","arrowright","arrowright"],"response_times":[549,330,415,455,919,1450,454,384,321,316],"outcomes":[58,46,36,47,34,32,57,54,36,54],"screen_resolution":1,"trial_type":"horizons-trial","trial_index":18,"time_elapsed":135195,"internal_node_id":"0.0-19.0"},{"horizon":10,"rewards_L":[56,53,60,65,55,67,59,74,41,49],"rewards_R":[67,63,72,51,54,75,67,57,63,60],"key_presses":["arrowright","arrowright","arrowright","arrowleft","arrowright","arrowright","arrowright","arrowright","arrowright","arrowright"],"response_times":[379,676,376,719,411,335,352,317,297,273],"outcomes":[67,63,72,65,54,75,67,57,63,60],"screen_resolution":1,"trial_type":"horizons-trial","trial_index":19,"time_elapsed":140124,"internal_node_id":"0.0-20.0"},{"horizon":10,"rewards_L":[42,64,65,49,41,45,49,49,44,49],"rewards_R":[37,51,30,45,36,34,44,43,39,32],"key_presses":["arrowleft","arrowleft","arrowright","arrowright","arrowright","arrowright","arrowright","arrowright","arrowright","arrowright"],"response_times":[438,359,409,495,754,351,305,400,271,239],"outcomes":[42,64,30,45,36,34,44,43,39,32],"screen_resolution":1,"trial_type":"horizons-trial","trial_index":20,"time_elapsed":144795,"internal_node_id":"0.0-21.0"},{"horizon":10,"rewards_L":[63,73,62,54,65,62,70,60,66,75],"rewards_R":[33,37,25,18,27,42,28,20,41,40],"key_presses":["arrowleft","arrowleft","arrowleft","arrowright","arrowleft","arrowleft","arrowleft","arrowleft","arrowleft","arrowleft"],"response_times":[579,381,320,383,536,449,369,365,426,350],"outcomes":[63,73,62,18,65,62,70,60,66,75],"screen_resolution":1,"trial_type":"horizons-trial","trial_index":21,"time_elapsed":149803,"internal_node_id":"0.0-22.0"},{"horizon":10,"rewards_L":[46,40,36,42,35,30,39,48,53,58],"rewards_R":[38,49,41,44,46,46,51,47,28,22],"key_presses":["arrowright","arrowleft","arrowright","arrowleft","arrowright","arrowleft","arrowright","arrowright","arrowright","arrowright"],"response_times":[359,296,344,264,432,641,623,344,316,228],"outcomes":[38,40,41,42,46,30,51,47,28,22],"screen_resolution":1,"trial_type":"horizons-trial","trial_index":22,"time_elapsed":154354,"internal_node_id":"0.0-23.0"},{"horizon":5,"rewards_L":[27,40,39,33,48],"rewards_R":[55,52,64,53,69],"key_presses":["arrowright","arrowright","arrowright","arrowleft","arrowright"],"response_times":[385,1011,463,588,592],"outcomes":[55,52,64,33,69],"screen_resolution":1,"trial_type":"horizons-trial","trial_index":23,"time_elapsed":158355,"internal_node_id":"0.0-24.0"},{"horizon":10,"rewards_L":[55,64,52,56,56,68,47,60,61,67],"rewards_R":[74,66,74,76,67,73,73,77,73,72],"key_presses":["arrowright","arrowright","arrowleft","arrowright","arrowright","arrowright","arrowright","arrowright","arrowright","arrowright"],"response_times":[511,809,904,362,909,481,359,346,366,403],"outcomes":[74,66,52,76,67,73,73,77,73,72],"screen_resolution":1,"trial_type":"horizons-trial","trial_index":24,"time_elapsed":164598,"internal_node_id":"0.0-25.0"},{"horizon":5,"rewards_L":[21,22,13,26,15],"rewards_R":[46,42,32,29,46],"key_presses":["arrowright","arrowright","arrowright","arrowleft","arrowright"],"response_times":[479,938,533,375,1135],"outcomes":[46,42,32,26,46],"screen_resolution":1,"trial_type":"horizons-trial","trial_index":25,"time_elapsed":168691,"internal_node_id":"0.0-26.0"},{"horizon":10,"rewards_L":[51,57,43,50,39,53,51,56,36,46],"rewards_R":[43,39,36,37,32,34,53,37,42,58],"key_presses":["arrowleft","arrowleft","arrowright","arrowleft","arrowleft","arrowright","arrowleft","arrowleft","arrowleft","arrowleft"],"response_times":[560,318,815,897,928,918,531,382,362,795],"outcomes":[51,57,36,50,39,34,51,56,36,46],"screen_resolution":1,"trial_type":"horizons-trial","trial_index":26,"time_elapsed":176253,"internal_node_id":"0.0-27.0"},{"horizon":5,"rewards_L":[50,46,44,44,25],"rewards_R":[50,53,56,58,72],"key_presses":["arrowright","arrowright","arrowleft","arrowleft","arrowright"],"response_times":[486,2100,396,624,341],"outcomes":[50,53,44,44,72],"screen_resolution":1,"trial_type":"horizons-trial","trial_index":27,"time_elapsed":181011,"internal_node_id":"0.0-28.0"},{"horizon":5,"rewards_L":[36,33,48,55,46],"rewards_R":[15,2,15,6,23],"key_presses":["arrowright","arrowleft","arrowleft","arrowright","arrowleft"],"response_times":[394,461,794,558,1059],"outcomes":[15,33,48,6,46],"screen_resolution":1,"trial_type":"horizons-trial","trial_index":28,"time_elapsed":185307,"internal_node_id":"0.0-29.0"},{"horizon":10,"rewards_L":[11,24,31,25,13,19,22,43,7,26],"rewards_R":[41,40,59,33,40,38,59,34,32,52],"key_presses":["arrowleft","arrowright","arrowright","arrowleft","arrowright","arrowright","arrowleft","arrowright","arrowright","arrowright"],"response_times":[527,368,512,441,658,1413,624,429,348,519],"outcomes":[11,40,59,25,40,38,22,34,32,52],"screen_resolution":1,"trial_type":"horizons-trial","trial_index":29,"time_elapsed":191700,"internal_node_id":"0.0-30.0"},{"horizon":10,"rewards_L":[39,18,24,33,38,17,24,46,39,43],"rewards_R":[35,44,43,49,27,46,44,45,36,40],"key_presses":["arrowright","arrowright","arrowright","arrowleft","arrowright","arrowleft","arrowright","arrowleft","arrowleft","arrowleft"],"response_times":[360,600,445,402,1135,679,648,736,1352,360],"outcomes":[35,44,43,33,27,17,44,46,39,43],"screen_resolution":1,"trial_type":"horizons-trial","trial_index":30,"time_elapsed":199243,"internal_node_id":"0.0-31.0"},{"horizon":5,"rewards_L":[64,63,55,43,54],"rewards_R":[49,56,55,62,67],"key_presses":["arrowright","arrowright","arrowleft","arrowleft","arrowright"],"response_times":[415,425,412,366,343],"outcomes":[49,56,55,43,67],"screen_resolution":1,"trial_type":"horizons-trial","trial_index":31,"time_elapsed":201812,"internal_node_id":"0.0-32.0"},{"horizon":10,"rewards_L":[30,36,39,39,36,43,50,36,34,33],"rewards_R":[46,36,48,31,29,39,27,43,29,32],"key_presses":["arrowleft","arrowright","arrowright","arrowleft","arrowright","arrowleft","arrowright","arrowright","arrowright","arrowright"],"response_times":[509,459,390,410,366,407,548,454,233,243],"outcomes":[30,36,48,39,29,43,27,43,29,32],"screen_resolution":1,"trial_type":"horizons-trial","trial_index":32,"time_elapsed":206351,"internal_node_id":"0.0-33.0"},{"horizon":5,"rewards_L":[43,42,38,31,39],"rewards_R":[12,28,20,18,9],"key_presses":["arrowleft","arrowright","arrowleft","arrowright","arrowleft"],"response_times":[505,299,927,355,941],"outcomes":[43,28,38,18,39],"screen_resolution":1,"trial_type":"horizons-trial","trial_index":33,"time_elapsed":209890,"internal_node_id":"0.0-34.0"},{"horizon":5,"rewards_L":[37,37,48,44,61],"rewards_R":[31,35,28,34,36],"key_presses":["arrowright","arrowleft","arrowleft","arrowright","arrowleft"],"response_times":[392,383,503,384,578],"outcomes":[31,37,48,34,61],"screen_resolution":1,"trial_type":"horizons-trial","trial_index":34,"time_elapsed":213126,"internal_node_id":"0.0-35.0"},{"horizon":10,"rewards_L":[45,55,47,43,38,36,28,38,44,34],"rewards_R":[66,64,60,38,74,76,60,66,48,57],"key_presses":["arrowright","arrowright","arrowright","arrowleft","arrowright","arrowright","arrowright","arrowright","arrowright","arrowright"],"response_times":[3730,554,505,631,760,424,320,329,280,383],"outcomes":[66,64,60,43,74,76,60,66,48,57],"screen_resolution":1,"trial_type":"horizons-trial","trial_index":35,"time_elapsed":224621,"internal_node_id":"0.0-36.0"},{"horizon":10,"rewards_L":[27,39,43,32,20,43,32,44,35,32],"rewards_R":[10,9,9,12,0,4,1,2,17,9],"key_presses":["arrowright","arrowleft","arrowright","arrowleft","arrowleft","arrowright","arrowleft","arrowleft","arrowright","arrowright"],"response_times":[389,463,505,354,742,1214,401,738,463,391],"outcomes":[10,39,9,32,20,4,32,44,17,9],"screen_resolution":1,"trial_type":"horizons-trial","trial_index":36,"time_elapsed":230981,"internal_node_id":"0.0-37.0"},{"horizon":10,"rewards_L":[40,34,45,43,49,53,38,50,32,42],"rewards_R":[28,36,33,42,24,36,43,9,23,30],"key_presses":["arrowright","arrowleft","arrowright","arrowleft","arrowleft","arrowleft","arrowleft","arrowright","arrowleft","arrowleft"],"response_times":[352,420,329,368,808,377,417,598,379,381],"outcomes":[28,34,33,43,49,53,38,9,32,42],"screen_resolution":1,"trial_type":"horizons-trial","trial_index":37,"time_elapsed":236115,"internal_node_id":"0.0-38.0"},{"horizon":10,"rewards_L":[39,46,41,36,35,37,41,30,49,39],"rewards_R":[51,44,40,32,37,37,44,53,34,51],"key_presses":["arrowright","arrowleft","arrowleft","arrowleft","arrowright","arrowleft","arrowright","arrowright","arrowright","arrowright"],"response_times":[368,372,314,312,473,559,344,648,481,361],"outcomes":[51,46,41,36,37,37,44,53,34,51],"screen_resolution":1,"trial_type":"horizons-trial","trial_index":38,"time_elapsed":241051,"internal_node_id":"0.0-39.0"},{"horizon":10,"rewards_L":[37,33,44,41,58,49,39,45,50,34],"rewards_R":[25,34,37,40,38,40,36,49,34,36],"key_presses":["arrowleft","arrowright","arrowright","arrowright","arrowright","arrowright","arrowright","arrowright","arrowright","arrowright"],"response_times":[512,353,579,350,973,544,360,456,473,342],"outcomes":[37,34,37,40,38,40,36,49,34,36],"screen_resolution":1,"trial_type":"horizons-trial","trial_index":39,"time_elapsed":246642,"internal_node_id":"0.0-40.0"},{"horizon":5,"rewards_L":[79,80,86,90,87],"rewards_R":[52,75,55,61,59],"key_presses":["arrowleft","arrowright","arrowleft","arrowright","arrowleft"],"response_times":[608,386,456,469,792],"outcomes":[79,75,86,61,87],"screen_resolution":1,"trial_type":"horizons-trial","trial_index":40,"time_elapsed":250139,"internal_node_id":"0.0-41.0"},{"horizon":10,"rewards_L":[46,45,40,44,44,33,38,34,51,34],"rewards_R":[48,56,52,58,61,49,59,59,42,49],"key_presses":["arrowright","arrowleft","arrowright","arrowleft","arrowright","arrowright","arrowright","arrowright","arrowright","arrowright"],"response_times":[433,322,388,374,458,4976,505,328,285,242],"outcomes":[48,45,52,44,61,49,59,59,42,49],"screen_resolution":1,"trial_type":"horizons-trial","trial_index":41,"time_elapsed":258954,"internal_node_id":"0.0-42.0"},{"horizon":10,"rewards_L":[70,85,84,83,69,79,91,77,83,93],"rewards_R":[54,73,61,58,63,60,66,57,56,66],"key_presses":["arrowleft","arrowright","arrowright","arrowleft","arrowleft","arrowright","arrowleft","arrowleft","arrowleft","arrowleft"],"response_times":[719,305,397,516,639,663,625,511,495,432],"outcomes":[70,73,61,83,69,60,91,77,83,93],"screen_resolution":1,"trial_type":"horizons-trial","trial_index":42,"time_elapsed":265140,"internal_node_id":"0.0-43.0"},{"horizon":5,"rewards_L":[57,60,61,80,48],"rewards_R":[57,65,57,75,60],"key_presses":["arrowleft","arrowright","arrowright","arrowleft","arrowleft"],"response_times":[394,397,656,417,544],"outcomes":[57,65,57,80,48],"screen_resolution":1,"trial_type":"horizons-trial","trial_index":43,"time_elapsed":268164,"internal_node_id":"0.0-44.0"},{"horizon":5,"rewards_L":[40,34,32,41,45],"rewards_R":[35,40,40,43,36],"key_presses":["arrowleft","arrowleft","arrowright","arrowleft","arrowright"],"response_times":[407,343,416,336,1023],"outcomes":[40,34,40,41,36],"screen_resolution":1,"trial_type":"horizons-trial","trial_index":44,"time_elapsed":271218,"internal_node_id":"0.0-45.0"},{"horizon":5,"rewards_L":[56,55,52,35,47],"rewards_R":[27,36,24,36,48],"key_presses":["arrowright","arrowleft","arrowright","arrowleft","arrowleft"],"response_times":[424,354,311,345,479],"outcomes":[27,55,24,35,47],"screen_resolution":1,"trial_type":"horizons-trial","trial_index":45,"time_elapsed":273795,"internal_node_id":"0.0-46.0"},{"horizon":10,"rewards_L":[66,54,63,64,61,51,65,50,63,63],"rewards_R":[79,69,74,86,71,86,67,72,77,73],"key_presses":["arrowright","arrowright","arrowleft","arrowright","arrowright","arrowright","arrowright","arrowright","arrowright","arrowright"],"response_times":[375,401,519,394,826,466,370,296,478,363],"outcomes":[79,69,63,86,71,86,67,72,77,73],"screen_resolution":1,"trial_type":"horizons-trial","trial_index":46,"time_elapsed":278874,"internal_node_id":"0.0-47.0"},{"horizon":5,"rewards_L":[29,35,28,52,30],"rewards_R":[70,64,62,52,73],"key_presses":["arrowright","arrowleft","arrowleft","arrowleft","arrowright"],"response_times":[394,494,649,454,362],"outcomes":[70,35,28,52,73],"screen_resolution":1,"trial_type":"horizons-trial","trial_index":47,"time_elapsed":282398,"internal_node_id":"0.0-48.0"},{"horizon":10,"rewards_L":[34,40,33,19,24,30,27,28,32,35],"rewards_R":[43,44,36,38,52,53,45,39,31,26],"key_presses":["arrowright","arrowleft","arrowright","arrowleft","arrowright","arrowright","arrowright","arrowright","arrowright","arrowright"],"response_times":[419,408,360,584,425,391,378,287,264,232],"outcomes":[43,40,36,19,52,53,45,39,31,26],"screen_resolution":1,"trial_type":"horizons-trial","trial_index":48,"time_elapsed":286684,"internal_node_id":"0.0-49.0"},{"horizon":10,"rewards_L":[42,34,40,44,55,49,54,31,56,55],"rewards_R":[36,52,42,43,42,51,32,36,41,30],"key_presses":["arrowleft","arrowright","arrowleft","arrowright","arrowleft","arrowright","arrowright","arrowright","arrowleft","arrowleft"],"response_times":[381,304,270,290,240,2165,308,391,776,597],"outcomes":[42,52,40,43,55,51,32,36,56,55],"screen_resolution":1,"trial_type":"horizons-trial","trial_index":49,"time_elapsed":293066,"internal_node_id":"0.0-50.0"},{"horizon":10,"rewards_L":[35,50,48,46,48,53,54,33,50,45],"rewards_R":[44,44,47,49,55,40,34,32,29,42],"key_presses":["arrowright","arrowright","arrowleft","arrowleft","arrowleft","arrowright","arrowleft","arrowright","arrowright","arrowright"],"response_times":[552,448,360,384,660,405,471,355,1007,354],"outcomes":[44,44,48,46,48,40,54,32,29,42],"screen_resolution":1,"trial_type":"horizons-trial","trial_index":50,"time_elapsed":300141,"internal_node_id":"0.0-51.0"},{"horizon":5,"rewards_L":[82,90,83,76,91],"rewards_R":[68,56,52,68,65],"key_presses":["arrowright","arrowleft","arrowleft","arrowright","arrowleft"],"response_times":[438,365,661,813,601],"outcomes":[68,90,83,68,91],"screen_resolution":1,"trial_type":"horizons-trial","trial_index":51,"time_elapsed":303940,"internal_node_id":"0.0-52.0"},{"horizon":5,"rewards_L":[71,68,63,45,48],"rewards_R":[59,45,72,69,55],"key_presses":["arrowright","arrowright","arrowleft","arrowleft","arrowright"],"response_times":[353,462,435,381,930],"outcomes":[59,45,63,45,55],"screen_resolution":1,"trial_type":"horizons-trial","trial_index":52,"time_elapsed":307890,"internal_node_id":"0.0-53.0"},{"horizon":5,"rewards_L":[49,46,32,36,29],"rewards_R":[75,71,59,84,60],"key_presses":["arrowleft","arrowright","arrowleft","arrowright","arrowright"],"response_times":[393,377,610,491,572],"outcomes":[49,71,32,84,60],"screen_resolution":1,"trial_type":"horizons-trial","trial_index":53,"time_elapsed":311175,"internal_node_id":"0.0-54.0"},{"horizon":5,"rewards_L":[59,67,67,60,50],"rewards_R":[36,61,39,30,45],"key_presses":["arrowleft","arrowright","arrowright","arrowright","arrowleft"],"response_times":[501,261,427,693,533],"outcomes":[59,61,39,30,50],"screen_resolution":1,"trial_type":"horizons-trial","trial_index":54,"time_elapsed":315098,"internal_node_id":"0.0-55.0"},{"horizon":10,"rewards_L":[75,67,63,55,51,62,41,55,52,57],"rewards_R":[37,38,48,26,37,12,54,46,31,26],"key_presses":["arrowleft","arrowright","arrowleft","arrowright","arrowleft","arrowleft","arrowleft","arrowright","arrowleft","arrowleft"],"response_times":[578,303,352,407,995,733,455,656,441,417],"outcomes":[75,38,63,26,51,62,41,46,52,57],"screen_resolution":1,"trial_type":"horizons-trial","trial_index":55,"time_elapsed":321439,"internal_node_id":"0.0-56.0"},{"horizon":10,"rewards_L":[22,7,18,20,20,23,17,18,16,14],"rewards_R":[29,47,37,34,57,37,20,28,23,48],"key_presses":["arrowright","arrowleft","arrowleft","arrowleft","arrowright","arrowright","arrowright","arrowleft","arrowright","arrowright"],"response_times":[370,367,500,412,384,428,335,487,432,455],"outcomes":[29,7,18,20,57,37,20,18,23,48],"screen_resolution":1,"trial_type":"horizons-trial","trial_index":56,"time_elapsed":326283,"internal_node_id":"0.0-57.0"},{"horizon":5,"rewards_L":[63,55,55,51,54],"rewards_R":[51,45,39,43,54],"key_presses":["arrowleft","arrowright","arrowright","arrowright","arrowleft"],"response_times":[655,344,514,425,470],"outcomes":[63,45,39,43,54],"screen_resolution":1,"trial_type":"horizons-trial","trial_index":57,"time_elapsed":329689,"internal_node_id":"0.0-58.0"},{"horizon":10,"rewards_L":[29,30,22,31,32,39,29,32,33,29],"rewards_R":[49,38,25,41,36,38,41,46,36,43],"key_presses":["arrowleft","arrowright","arrowleft","arrowright","arrowright","arrowright","arrowright","arrowleft","arrowright","arrowleft"],"response_times":[690,322,475,427,734,393,477,296,362,380],"outcomes":[29,38,22,41,36,38,41,32,36,29],"screen_resolution":1,"trial_type":"horizons-trial","trial_index":58,"time_elapsed":334831,"internal_node_id":"0.0-59.0"},{"horizon":10,"rewards_L":[63,73,71,75,56,58,69,74,61,53],"rewards_R":[52,56,57,51,60,66,59,54,65,61],"key_presses":["arrowright","arrowleft","arrowright","arrowright","arrowright","arrowright","arrowright","arrowright","arrowright","arrowright"],"response_times":[708,310,307,910,401,539,325,353,264,365],"outcomes":[52,73,57,51,60,66,59,54,65,61],"screen_resolution":1,"trial_type":"horizons-trial","trial_index":59,"time_elapsed":340090,"internal_node_id":"0.0-60.0"},{"horizon":10,"rewards_L":[49,29,40,24,48,49,43,48,30,45],"rewards_R":[24,21,49,29,38,32,38,27,23,15],"key_presses":["arrowleft","arrowleft","arrowright","arrowright","arrowleft","arrowright","arrowleft","arrowleft","arrowleft","arrowleft"],"response_times":[496,290,422,362,743,445,963,400,305,293],"outcomes":[49,29,49,29,48,32,43,48,30,45],"screen_resolution":1,"trial_type":"horizons-trial","trial_index":60,"time_elapsed":345453,"internal_node_id":"0.0-61.0"},{"horizon":5,"rewards_L":[54,37,49,54,48],"rewards_R":[65,72,50,50,60],"key_presses":["arrowright","arrowright","arrowright","arrowleft","arrowright"],"response_times":[366,430,522,591,271],"outcomes":[65,72,50,54,60],"screen_resolution":1,"trial_type":"horizons-trial","trial_index":61,"time_elapsed":348148,"internal_node_id":"0.0-62.0"},{"horizon":10,"rewards_L":[36,32,37,28,20,30,10,30,31,10],"rewards_R":[50,45,47,24,45,47,37,49,34,37],"key_presses":["arrowright","arrowleft","arrowleft","arrowleft","arrowright","arrowright","arrowright","arrowleft","arrowright","arrowright"],"response_times":[388,400,368,334,787,872,326,670,382,341],"outcomes":[50,32,37,28,45,47,37,30,34,37],"screen_resolution":1,"trial_type":"horizons-trial","trial_index":62,"time_elapsed":354467,"internal_node_id":"0.0-63.0"},{"horizon":10,"rewards_L":[35,23,28,25,21,35,20,12,24,31],"rewards_R":[37,30,17,53,45,38,47,39,36,19],"key_presses":["arrowleft","arrowleft","arrowright","arrowright","arrowright","arrowleft","arrowright","arrowright","arrowright","arrowright"],"response_times":[550,556,299,453,427,773,811,864,335,298],"outcomes":[35,23,17,53,45,35,47,39,36,19],"screen_resolution":1,"trial_type":"horizons-trial","trial_index":63,"time_elapsed":360680,"internal_node_id":"0.0-64.0"},{"horizon":5,"rewards_L":[23,20,23,21,34],"rewards_R":[32,47,47,45,43],"key_presses":["arrowright","arrowleft","arrowright","arrowleft","arrowright"],"response_times":[352,377,399,434,435],"outcomes":[32,20,47,21,43],"screen_resolution":1,"trial_type":"horizons-trial","trial_index":64,"time_elapsed":363505,"internal_node_id":"0.0-65.0"},{"horizon":5,"rewards_L":[57,67,54,69,57],"rewards_R":[63,60,52,50,60],"key_presses":["arrowleft","arrowleft","arrowright","arrowleft","arrowleft"],"response_times":[506,390,433,528,609],"outcomes":[57,67,52,69,57],"screen_resolution":1,"trial_type":"horizons-trial","trial_index":65,"time_elapsed":366909,"internal_node_id":"0.0-66.0"},{"horizon":5,"rewards_L":[50,41,41,59,57],"rewards_R":[50,50,29,46,37],"key_presses":["arrowleft","arrowright","arrowleft","arrowright","arrowleft"],"response_times":[470,430,458,450,1420],"outcomes":[50,50,41,46,57],"screen_resolution":1,"trial_type":"horizons-trial","trial_index":66,"time_elapsed":370645,"internal_node_id":"0.0-67.0"},{"horizon":10,"rewards_L":[59,59,56,61,59,59,65,48,48,42],"rewards_R":[41,41,51,48,45,49,31,41,41,46],"key_presses":["arrowleft","arrowleft","arrowright","arrowleft","arrowleft","arrowright","arrowright","arrowleft","arrowleft","arrowleft"],"response_times":[445,463,856,332,701,345,1133,485,596,403],"outcomes":[59,59,51,61,59,49,31,48,48,42],"screen_resolution":1,"trial_type":"horizons-trial","trial_index":67,"time_elapsed":377070,"internal_node_id":"0.0-68.0"},{"horizon":10,"rewards_L":[42,45,28,19,20,33,39,16,42,16],"rewards_R":[41,40,43,39,37,51,36,36,39,36],"key_presses":["arrowright","arrowright","arrowright","arrowleft","arrowright","arrowleft","arrowright","arrowright","arrowright","arrowright"],"response_times":[387,616,5707,928,356,392,753,360,244,236],"outcomes":[41,40,43,19,37,33,36,36,39,36],"screen_resolution":1,"trial_type":"horizons-trial","trial_index":68,"time_elapsed":387644,"internal_node_id":"0.0-69.0"},{"horizon":10,"rewards_L":[67,65,57,73,60,57,62,58,48,63],"rewards_R":[61,51,49,48,47,47,54,58,53,49],"key_presses":["arrowleft","arrowright","arrowright","arrowright","arrowleft","arrowleft","arrowleft","arrowleft","arrowleft","arrowleft"],"response_times":[517,352,811,1318,385,698,340,260,258,268],"outcomes":[67,51,49,48,60,57,62,58,48,63],"screen_resolution":1,"trial_type":"horizons-trial","trial_index":69,"time_elapsed":393381,"internal_node_id":"0.0-70.0"},{"horizon":10,"rewards_L":[65,70,66,58,74,67,71,57,55,60],"rewards_R":[58,61,51,63,60,50,38,65,68,65],"key_presses":["arrowleft","arrowleft","arrowleft","arrowright","arrowleft","arrowleft","arrowleft","arrowleft","arrowleft","arrowleft"],"response_times":[372,530,1078,752,457,778,426,372,406,403],"outcomes":[65,70,66,63,74,67,71,57,55,60],"screen_resolution":1,"trial_type":"horizons-trial","trial_index":70,"time_elapsed":399770,"internal_node_id":"0.0-71.0"},{"horizon":10,"rewards_L":[68,57,70,69,43,46,62,67,70,50],"rewards_R":[41,55,66,52,59,55,52,54,56,47],"key_presses":["arrowleft","arrowright","arrowleft","arrowright","arrowleft","arrowright","arrowright","arrowright","arrowright","arrowright"],"response_times":[466,392,423,582,1042,663,714,483,411,315],"outcomes":[68,55,70,52,43,55,52,54,56,47],"screen_resolution":1,"trial_type":"horizons-trial","trial_index":71,"time_elapsed":405773,"internal_node_id":"0.0-72.0"},{"horizon":10,"rewards_L":[45,49,49,38,41,51,40,41,54,51],"rewards_R":[66,56,53,62,64,47,62,58,70,59],"key_presses":["arrowright","arrowleft","arrowleft","arrowleft","arrowright","arrowright","arrowleft","arrowright","arrowright","arrowright"],"response_times":[350,470,631,453,710,3518,667,509,420,316],"outcomes":[66,49,49,38,64,47,40,58,70,59],"screen_resolution":1,"trial_type":"horizons-trial","trial_index":72,"time_elapsed":415032,"internal_node_id":"0.0-73.0"},{"horizon":5,"rewards_L":[21,32,54,25,32],"rewards_R":[59,60,81,59,60],"key_presses":["arrowright","arrowright","arrowright","arrowleft","arrowright"],"response_times":[410,480,456,825,474],"outcomes":[59,60,81,25,60],"screen_resolution":1,"trial_type":"horizons-trial","trial_index":73,"time_elapsed":418423,"internal_node_id":"0.0-74.0"},{"horizon":5,"rewards_L":[23,24,38,20,26],"rewards_R":[67,43,61,52,50],"key_presses":["arrowleft","arrowright","arrowleft","arrowright","arrowright"],"response_times":[547,429,563,567,2387],"outcomes":[23,43,38,52,50],"screen_resolution":1,"trial_type":"horizons-trial","trial_index":74,"time_elapsed":423443,"internal_node_id":"0.0-75.0"},{"horizon":5,"rewards_L":[51,56,61,63,62],"rewards_R":[41,48,56,42,44],"key_presses":["arrowleft","arrowright","arrowright","arrowleft","arrowleft"],"response_times":[527,312,730,365,656],"outcomes":[51,48,56,63,62],"screen_resolution":1,"trial_type":"horizons-trial","trial_index":75,"time_elapsed":426739,"internal_node_id":"0.0-76.0"},{"horizon":5,"rewards_L":[52,52,65,66,51],"rewards_R":[84,70,60,74,82],"key_presses":["arrowleft","arrowright","arrowleft","arrowright","arrowright"],"response_times":[398,347,374,512,1000],"outcomes":[52,70,65,74,82],"screen_resolution":1,"trial_type":"horizons-trial","trial_index":76,"time_elapsed":430016,"internal_node_id":"0.0-77.0"},{"horizon":5,"rewards_L":[37,30,36,47,43],"rewards_R":[37,38,35,34,25],"key_presses":["arrowleft","arrowright","arrowright","arrowright","arrowleft"],"response_times":[776,393,747,484,374],"outcomes":[37,38,35,34,43],"screen_resolution":1,"trial_type":"horizons-trial","trial_index":77,"time_elapsed":434220,"internal_node_id":"0.0-78.0"},{"horizon":10,"rewards_L":[46,47,42,50,47,39,37,48,39,45],"rewards_R":[40,57,34,39,32,28,36,28,26,33],"key_presses":["arrowleft","arrowleft","arrowleft","arrowright","arrowleft","arrowright","arrowleft","arrowleft","arrowleft","arrowleft"],"response_times":[407,387,364,445,1267,825,415,377,280,278],"outcomes":[46,47,42,39,47,28,37,48,39,45],"screen_resolution":1,"trial_type":"horizons-trial","trial_index":78,"time_elapsed":440109,"internal_node_id":"0.0-79.0"},{"horizon":5,"rewards_L":[58,39,47,42,43],"rewards_R":[53,42,50,41,60],"key_presses":["arrowright","arrowleft","arrowright","arrowright","arrowleft"],"response_times":[381,370,398,642,323],"outcomes":[53,39,50,41,43],"screen_resolution":1,"trial_type":"horizons-trial","trial_index":79,"time_elapsed":443018,"internal_node_id":"0.0-80.0"},{"horizon":5,"rewards_L":[33,59,47,30,31],"rewards_R":[25,38,55,18,43],"key_presses":["arrowleft","arrowleft","arrowright","arrowright","arrowleft"],"response_times":[509,619,342,546,390],"outcomes":[33,59,55,18,31],"screen_resolution":1,"trial_type":"horizons-trial","trial_index":80,"time_elapsed":445939,"internal_node_id":"0.0-81.0"},{"horizon":10,"rewards_L":[27,19,21,32,37,18,19,45,36,34],"rewards_R":[58,55,70,80,59,64,45,60,77,66],"key_presses":["arrowright","arrowleft","arrowleft","arrowright","arrowleft","arrowright","arrowright","arrowright","arrowright","arrowright"],"response_times":[466,437,594,332,314,537,342,368,277,250],"outcomes":[58,19,21,80,37,64,45,60,77,66],"screen_resolution":1,"trial_type":"horizons-trial","trial_index":81,"time_elapsed":450554,"internal_node_id":"0.0-82.0"},{"horizon":5,"rewards_L":[56,49,67,80,57],"rewards_R":[57,53,65,61,48],"key_presses":["arrowleft","arrowleft","arrowleft","arrowright","arrowleft"],"response_times":[488,367,370,376,1231],"outcomes":[56,49,67,61,57],"screen_resolution":1,"trial_type":"horizons-trial","trial_index":82,"time_elapsed":454077,"internal_node_id":"0.0-83.0"},{"horizon":5,"rewards_L":[44,31,36,46,50],"rewards_R":[39,25,21,34,40],"key_presses":["arrowright","arrowright","arrowleft","arrowleft","arrowright"],"response_times":[475,402,334,593,728],"outcomes":[39,25,36,46,40],"screen_resolution":1,"trial_type":"horizons-trial","trial_index":83,"time_elapsed":457142,"internal_node_id":"0.0-84.0"},{"horizon":5,"rewards_L":[52,34,25,41,41],"rewards_R":[17,19,22,24,27],"key_presses":["arrowleft","arrowleft","arrowleft","arrowright","arrowleft"],"response_times":[406,400,332,424,810],"outcomes":[52,34,25,24,41],"screen_resolution":1,"trial_type":"horizons-trial","trial_index":84,"time_elapsed":460412,"internal_node_id":"0.0-85.0"},{"horizon":5,"rewards_L":[42,48,33,43,48],"rewards_R":[31,18,30,29,26],"key_presses":["arrowleft","arrowright","arrowright","arrowright","arrowleft"],"response_times":[504,399,653,377,454],"outcomes":[42,18,30,29,48],"screen_resolution":1,"trial_type":"horizons-trial","trial_index":85,"time_elapsed":463834,"internal_node_id":"0.0-86.0"},{"horizon":5,"rewards_L":[54,40,49,44,36],"rewards_R":[33,45,36,45,51],"key_presses":["arrowright","arrowleft","arrowright","arrowleft","arrowright"],"response_times":[446,414,318,302,754],"outcomes":[33,40,36,44,51],"screen_resolution":1,"trial_type":"horizons-trial","trial_index":86,"time_elapsed":466635,"internal_node_id":"0.0-87.0"},{"horizon":10,"rewards_L":[36,39,35,40,47,30,39,30,41,40],"rewards_R":[86,68,65,80,66,81,54,67,85,82],"key_presses":["arrowright","arrowleft","arrowleft","arrowright","arrowright","arrowright","arrowright","arrowright","arrowright","arrowright"],"response_times":[561,635,19459,420,754,431,412,325,385,288],"outcomes":[86,39,35,80,66,81,54,67,85,82],"screen_resolution":1,"trial_type":"horizons-trial","trial_index":87,"time_elapsed":490955,"internal_node_id":"0.0-88.0"},{"horizon":5,"rewards_L":[75,54,64,62,62],"rewards_R":[64,74,80,70,66],"key_presses":["arrowleft","arrowleft","arrowright","arrowright","arrowright"],"response_times":[526,403,383,438,441],"outcomes":[75,54,80,70,66],"screen_resolution":1,"trial_type":"horizons-trial","trial_index":88,"time_elapsed":493779,"internal_node_id":"0.0-89.0"},{"horizon":10,"rewards_L":[31,36,29,38,38,39,31,39,46,40],"rewards_R":[3,28,0,13,19,15,21,3,18,0],"key_presses":["arrowleft","arrowright","arrowright","arrowright","arrowleft","arrowleft","arrowleft","arrowleft","arrowleft","arrowright"],"response_times":[470,347,310,1024,377,415,719,328,344,349],"outcomes":[31,28,0,13,38,39,31,39,46,0],"screen_resolution":1,"trial_type":"horizons-trial","trial_index":89,"time_elapsed":499647,"internal_node_id":"0.0-90.0"},{"horizon":5,"rewards_L":[54,64,62,65,70],"rewards_R":[35,51,50,47,53],"key_presses":["arrowleft","arrowleft","arrowleft","arrowright","arrowleft"],"response_times":[369,412,357,366,603],"outcomes":[54,64,62,47,70],"screen_resolution":1,"trial_type":"horizons-trial","trial_index":90,"time_elapsed":502372,"internal_node_id":"0.0-91.0"},{"horizon":5,"rewards_L":[64,60,59,56,44],"rewards_R":[76,82,71,88,70],"key_presses":["arrowright","arrowleft","arrowleft","arrowright","arrowright"],"response_times":[365,336,424,315,898],"outcomes":[76,60,59,88,70],"screen_resolution":1,"trial_type":"horizons-trial","trial_index":91,"time_elapsed":505370,"internal_node_id":"0.0-92.0"},{"horizon":10,"rewards_L":[49,42,43,36,41,41,30,32,19,32],"rewards_R":[26,23,14,23,11,19,26,29,29,6],"key_presses":["arrowleft","arrowleft","arrowleft","arrowright","arrowleft","arrowleft","arrowleft","arrowright","arrowleft","arrowleft"],"response_times":[449,328,311,464,357,1229,308,369,379,321],"outcomes":[49,42,43,23,41,41,30,29,19,32],"screen_resolution":1,"trial_type":"horizons-trial","trial_index":92,"time_elapsed":510530,"internal_node_id":"0.0-93.0"},{"horizon":5,"rewards_L":[45,52,50,56,70],"rewards_R":[48,31,29,40,24],"key_presses":["arrowleft","arrowleft","arrowright","arrowright","arrowleft"],"response_times":[388,732,311,571,732],"outcomes":[45,52,29,40,70],"screen_resolution":1,"trial_type":"horizons-trial","trial_index":93,"time_elapsed":514699,"internal_node_id":"0.0-94.0"},{"horizon":10,"rewards_L":[43,55,68,59,37,56,54,55,54,51],"rewards_R":[57,60,51,61,63,51,53,51,51,62],"key_presses":["arrowleft","arrowright","arrowright","arrowleft","arrowright","arrowright","arrowright","arrowright","arrowleft","arrowright"],"response_times":[440,304,558,440,437,651,416,418,270,411],"outcomes":[43,60,51,59,63,51,53,51,54,62],"screen_resolution":1,"trial_type":"horizons-trial","trial_index":94,"time_elapsed":519745,"internal_node_id":"0.0-95.0"},{"horizon":5,"rewards_L":[67,69,80,66,79],"rewards_R":[58,55,56,57,59],"key_presses":["arrowright","arrowleft","arrowright","arrowleft","arrowleft"],"response_times":[351,400,431,522,747],"outcomes":[58,69,56,66,79],"screen_resolution":1,"trial_type":"horizons-trial","trial_index":95,"time_elapsed":523086,"internal_node_id":"0.0-96.0"},{"horizon":5,"rewards_L":[60,58,82,73,67],"rewards_R":[26,42,39,32,24],"key_presses":["arrowleft","arrowright","arrowright","arrowright","arrowleft"],"response_times":[436,293,634,361,471],"outcomes":[60,42,39,32,67],"screen_resolution":1,"trial_type":"horizons-trial","trial_index":96,"time_elapsed":526020,"internal_node_id":"0.0-97.0"},{"horizon":10,"rewards_L":[34,22,35,41,31,28,24,39,31,44],"rewards_R":[37,72,68,55,59,65,68,62,69,56],"key_presses":["arrowright","arrowright","arrowright","arrowleft","arrowright","arrowright","arrowright","arrowright","arrowright","arrowright"],"response_times":[373,376,333,535,344,671,560,317,267,427],"outcomes":[37,72,68,41,59,65,68,62,69,56],"screen_resolution":1,"trial_type":"horizons-trial","trial_index":97,"time_elapsed":531171,"internal_node_id":"0.0-98.0"},{"horizon":10,"rewards_L":[48,52,58,55,56,54,77,57,54,60],"rewards_R":[82,81,68,81,85,75,65,66,78,90],"key_presses":["arrowright","arrowleft","arrowleft","arrowright","arrowright","arrowright","arrowright","arrowright","arrowright","arrowright"],"response_times":[381,757,438,376,940,420,406,342,369,370],"outcomes":[82,52,58,81,85,75,65,66,78,90],"screen_resolution":1,"trial_type":"horizons-trial","trial_index":98,"time_elapsed":537030,"internal_node_id":"0.0-99.0"},{"horizon":5,"rewards_L":[64,52,64,69,58],"rewards_R":[42,42,24,55,44],"key_presses":["arrowright","arrowright","arrowleft","arrowleft","arrowright"],"response_times":[346,402,383,417,336],"outcomes":[42,42,64,69,44],"screen_resolution":1,"trial_type":"horizons-trial","trial_index":99,"time_elapsed":539465,"internal_node_id":"0.0-100.0"},{"horizon":10,"rewards_L":[61,53,48,62,47,53,56,52,57,52],"rewards_R":[33,39,34,30,35,38,40,40,48,38],"key_presses":["arrowright","arrowleft","arrowright","arrowright","arrowright","arrowleft","arrowleft","arrowleft","arrowleft","arrowleft"],"response_times":[425,431,383,369,831,513,364,299,266,430],"outcomes":[33,53,34,30,35,53,56,52,57,52],"screen_resolution":1,"trial_type":"horizons-trial","trial_index":100,"time_elapsed":544879,"internal_node_id":"0.0-101.0"},{"horizon":10,"rewards_L":[66,65,57,64,56,61,63,52,67,76],"rewards_R":[74,70,82,78,68,77,68,64,78,89],"key_presses":["arrowleft","arrowright","arrowright","arrowleft","arrowright","arrowleft","arrowright","arrowleft","arrowright","arrowright"],"response_times":[398,371,481,399,771,808,461,619,545,284],"outcomes":[66,70,82,64,68,61,68,52,78,89],"screen_resolution":1,"trial_type":"horizons-trial","trial_index":101,"time_elapsed":550797,"internal_node_id":"0.0-102.0"},{"horizon":10,"rewards_L":[58,59,57,50,54,54,61,62,46,74],"rewards_R":[66,80,86,97,84,70,80,71,79,89],"key_presses":["arrowleft","arrowright","arrowleft","arrowleft","arrowleft","arrowright","arrowright","arrowright","arrowright","arrowright"],"response_times":[478,295,454,451,326,653,552,328,239,283],"outcomes":[58,80,57,50,54,70,80,71,79,89],"screen_resolution":1,"trial_type":"horizons-trial","trial_index":102,"time_elapsed":555422,"internal_node_id":"0.0-103.0"},{"horizon":5,"rewards_L":[100,81,79,84,91],"rewards_R":[64,53,72,52,51],"key_presses":["arrowleft","arrowright","arrowright","arrowleft","arrowleft"],"response_times":[377,335,841,343,430],"outcomes":[100,53,72,84,91],"screen_resolution":1,"trial_type":"horizons-trial","trial_index":103,"time_elapsed":558722,"internal_node_id":"0.0-104.0"},{"horizon":10,"rewards_L":[100,100,84,91,98,81,87,80,90,97],"rewards_R":[68,61,74,60,54,68,64,70,67,65],"key_presses":["arrowright","arrowleft","arrowright","arrowright","arrowleft","arrowleft","arrowleft","arrowleft","arrowleft","arrowleft"],"response_times":[439,359,315,501,488,473,331,278,268,346],"outcomes":[68,100,74,60,98,81,87,80,90,97],"screen_resolution":1,"trial_type":"horizons-trial","trial_index":104,"time_elapsed":563287,"internal_node_id":"0.0-105.0"},{"horizon":10,"rewards_L":[39,46,41,35,45,35,33,42,47,42],"rewards_R":[29,27,18,30,34,34,26,22,40,18],"key_presses":["arrowright","arrowright","arrowleft","arrowleft","arrowleft","arrowleft","arrowleft","arrowleft","arrowleft","arrowleft"],"response_times":[396,365,403,379,1786,521,322,247,237,277],"outcomes":[29,27,41,35,45,35,33,42,47,42],"screen_resolution":1,"trial_type":"horizons-trial","trial_index":105,"time_elapsed":568763,"internal_node_id":"0.0-106.0"},{"horizon":5,"rewards_L":[31,50,32,40,40],"rewards_R":[68,64,55,70,63],"key_presses":["arrowright","arrowright","arrowleft","arrowright","arrowleft"],"response_times":[409,292,401,400,280],"outcomes":[68,64,32,70,40],"screen_resolution":1,"trial_type":"horizons-trial","trial_index":106,"time_elapsed":571443,"internal_node_id":"0.0-107.0"},{"horizon":5,"rewards_L":[79,87,63,74,83],"rewards_R":[63,70,52,61,59],"key_presses":["arrowleft","arrowleft","arrowright","arrowleft","arrowright"],"response_times":[418,452,328,665,838],"outcomes":[79,87,52,74,59],"screen_resolution":1,"trial_type":"horizons-trial","trial_index":107,"time_elapsed":574748,"internal_node_id":"0.0-108.0"},{"horizon":10,"rewards_L":[62,62,62,71,62,57,55,55,76,66],"rewards_R":[52,62,59,56,38,59,63,48,49,55],"key_presses":["arrowright","arrowleft","arrowright","arrowleft","arrowleft","arrowleft","arrowright","arrowright","arrowright","arrowright"],"response_times":[372,350,316,302,2648,515,320,1977,290,272],"outcomes":[52,62,59,71,62,57,63,48,49,55],"screen_resolution":1,"trial_type":"horizons-trial","trial_index":108,"time_elapsed":582953,"internal_node_id":"0.0-109.0"},{"horizon":5,"rewards_L":[21,33,44,28,39],"rewards_R":[46,35,36,34,50],"key_presses":["arrowleft","arrowright","arrowleft","arrowright","arrowleft"],"response_times":[394,344,358,279,865],"outcomes":[21,35,44,34,39],"screen_resolution":1,"trial_type":"horizons-trial","trial_index":109,"time_elapsed":586098,"internal_node_id":"0.0-110.0"},{"horizon":10,"rewards_L":[37,30,46,36,41,34,39,35,50,40],"rewards_R":[58,59,50,49,70,45,60,51,59,65],"key_presses":["arrowleft","arrowright","arrowleft","arrowleft","arrowright","arrowright","arrowright","arrowright","arrowright","arrowright"],"response_times":[448,310,437,1096,350,421,251,211,285,236],"outcomes":[37,59,46,36,70,45,60,51,59,65],"screen_resolution":1,"trial_type":"horizons-trial","trial_index":110,"time_elapsed":591089,"internal_node_id":"0.0-111.0"},{"horizon":5,"rewards_L":[55,45,45,38,44],"rewards_R":[60,69,59,51,61],"key_presses":["arrowleft","arrowright","arrowright","arrowleft","arrowright"],"response_times":[381,344,315,907,351],"outcomes":[55,69,59,38,61],"screen_resolution":1,"trial_type":"horizons-trial","trial_index":111,"time_elapsed":594515,"internal_node_id":"0.0-112.0"},{"horizon":5,"rewards_L":[47,46,53,55,37],"rewards_R":[54,50,50,55,56],"key_presses":["arrowright","arrowright","arrowright","arrowleft","arrowleft"],"response_times":[352,351,367,466,1805],"outcomes":[54,50,50,55,37],"screen_resolution":1,"trial_type":"horizons-trial","trial_index":112,"time_elapsed":598846,"internal_node_id":"0.0-113.0"},{"horizon":5,"rewards_L":[33,38,44,27,31],"rewards_R":[62,47,49,47,58],"key_presses":["arrowright","arrowleft","arrowleft","arrowleft","arrowright"],"response_times":[393,308,506,425,343],"outcomes":[62,38,44,27,58],"screen_resolution":1,"trial_type":"horizons-trial","trial_index":113,"time_elapsed":601416,"internal_node_id":"0.0-114.0"},{"horizon":10,"rewards_L":[51,52,52,60,59,58,59,69,49,64],"rewards_R":[43,41,47,36,52,44,36,45,43,40],"key_presses":["arrowright","arrowright","arrowleft","arrowleft","arrowleft","arrowright","arrowleft","arrowleft","arrowleft","arrowleft"],"response_times":[410,313,406,362,843,842,407,296,191,281],"outcomes":[43,41,52,60,59,44,59,69,49,64],"screen_resolution":1,"trial_type":"horizons-trial","trial_index":114,"time_elapsed":606489,"internal_node_id":"0.0-115.0"},{"horizon":5,"rewards_L":[52,53,56,52,58],"rewards_R":[77,75,75,66,75],"key_presses":["arrowleft","arrowright","arrowleft","arrowleft","arrowright"],"response_times":[408,402,357,408,461],"outcomes":[52,75,56,52,75],"screen_resolution":1,"trial_type":"horizons-trial","trial_index":115,"time_elapsed":609060,"internal_node_id":"0.0-116.0"},{"horizon":10,"rewards_L":[80,78,87,66,88,86,82,82,83,86],"rewards_R":[56,55,55,54,53,65,64,62,63,53],"key_presses":["arrowleft","arrowleft","arrowright","arrowleft","arrowright","arrowleft","arrowleft","arrowleft","arrowleft","arrowleft"],"response_times":[1080,398,407,413,669,416,225,191,159,142],"outcomes":[80,78,55,66,53,86,82,82,83,86],"screen_resolution":1,"trial_type":"horizons-trial","trial_index":116,"time_elapsed":614792,"internal_node_id":"0.0-117.0"},{"horizon":10,"rewards_L":[28,46,27,51,43,45,33,44,41,47],"rewards_R":[32,20,20,38,24,29,30,27,18,25],"key_presses":["arrowleft","arrowright","arrowleft","arrowright","arrowleft","arrowright","arrowleft","arrowright","arrowleft","arrowleft"],"response_times":[394,391,392,328,330,1050,564,416,440,434],"outcomes":[28,20,27,38,43,29,33,27,41,47],"screen_resolution":1,"trial_type":"horizons-trial","trial_index":117,"time_elapsed":620170,"internal_node_id":"0.0-118.0"},{"horizon":10,"rewards_L":[70,44,57,48,41,57,65,71,55,43],"rewards_R":[54,56,66,61,53,54,65,56,58,61],"key_presses":["arrowleft","arrowleft","arrowright","arrowright","arrowright","arrowright","arrowright","arrowleft","arrowleft","arrowleft"],"response_times":[392,622,323,433,365,441,351,297,927,281],"outcomes":[70,44,66,61,53,54,65,71,55,43],"screen_resolution":1,"trial_type":"horizons-trial","trial_index":118,"time_elapsed":625522,"internal_node_id":"0.0-119.0"},{"horizon":10,"rewards_L":[61,57,64,67,45,62,55,61,59,61],"rewards_R":[35,34,33,34,29,36,22,24,25,20],"key_presses":["arrowright","arrowleft","arrowleft","arrowright","arrowleft","arrowleft","arrowright","arrowleft","arrowleft","arrowleft"],"response_times":[429,288,541,293,271,2031,385,405,291,357],"outcomes":[35,57,64,34,45,62,22,61,59,61],"screen_resolution":1,"trial_type":"horizons-trial","trial_index":119,"time_elapsed":632801,"internal_node_id":"0.0-120.0"},{"horizon":10,"rewards_L":[32,37,24,40,50,41,35,39,49,33],"rewards_R":[65,64,44,68,70,58,62,63,69,49],"key_presses":["arrowleft","arrowright","arrowleft","arrowright","arrowright","arrowright","arrowright","arrowright","arrowright","arrowright"],"response_times":[391,306,303,249,550,299,304,206,229,263],"outcomes":[32,64,24,68,70,58,62,63,69,49],"screen_resolution":1,"trial_type":"horizons-trial","trial_index":120,"time_elapsed":637250,"internal_node_id":"0.0-121.0"},{"horizon":10,"rewards_L":[50,40,43,31,39,58,33,42,36,39],"rewards_R":[41,58,37,49,39,30,36,40,38,40],"key_presses":["arrowleft","arrowright","arrowleft","arrowleft","arrowright","arrowright","arrowleft","arrowleft","arrowright","arrowleft"],"response_times":[607,303,442,516,295,932,370,381,354,2025],"outcomes":[50,58,43,31,39,30,33,42,38,39],"screen_resolution":1,"trial_type":"horizons-trial","trial_index":121,"time_elapsed":644475,"internal_node_id":"0.0-122.0"},{"horizon":5,"rewards_L":[34,52,42,47,41],"rewards_R":[49,58,41,39,53],"key_presses":["arrowleft","arrowleft","arrowright","arrowright","arrowleft"],"response_times":[408,317,374,400,553],"outcomes":[34,52,41,39,41],"screen_resolution":1,"trial_type":"horizons-trial","trial_index":122,"time_elapsed":647171,"internal_node_id":"0.0-123.0"},{"horizon":5,"rewards_L":[71,82,78,71,50],"rewards_R":[37,50,42,47,33],"key_presses":["arrowright","arrowright","arrowleft","arrowleft","arrowleft"],"response_times":[388,327,466,295,337],"outcomes":[37,50,78,71,50],"screen_resolution":1,"trial_type":"horizons-trial","trial_index":123,"time_elapsed":649896,"internal_node_id":"0.0-124.0"},{"horizon":5,"rewards_L":[24,17,44,39,36],"rewards_R":[16,3,5,24,7],"key_presses":["arrowleft","arrowleft","arrowleft","arrowright","arrowleft"],"response_times":[422,634,571,338,923],"outcomes":[24,17,44,24,36],"screen_resolution":1,"trial_type":"horizons-trial","trial_index":124,"time_elapsed":653839,"internal_node_id":"0.0-125.0"},{"horizon":5,"rewards_L":[38,31,39,36,51],"rewards_R":[0,5,19,1,0],"key_presses":["arrowleft","arrowright","arrowright","arrowright","arrowleft"],"response_times":[383,353,457,710,405],"outcomes":[38,5,19,1,51],"screen_resolution":1,"trial_type":"horizons-trial","trial_index":125,"time_elapsed":656789,"internal_node_id":"0.0-126.0"},{"horizon":10,"rewards_L":[33,35,37,24,64,42,43,36,39,37],"rewards_R":[31,28,39,33,50,25,36,30,43,35],"key_presses":["arrowright","arrowright","arrowright","arrowleft","arrowright","arrowright","arrowleft","arrowleft","arrowleft","arrowright"],"response_times":[487,306,322,529,1364,624,561,478,352,538],"outcomes":[31,28,39,24,50,25,43,36,39,35],"screen_resolution":1,"trial_type":"horizons-trial","trial_index":126,"time_elapsed":662877,"internal_node_id":"0.0-127.0"},{"horizon":10,"rewards_L":[40,40,46,47,42,31,27,50,35,38],"rewards_R":[56,57,58,55,71,55,51,49,66,67],"key_presses":["arrowleft","arrowleft","arrowright","arrowright","arrowright","arrowright","arrowright","arrowright","arrowright","arrowright"],"response_times":[589,518,391,679,376,435,286,186,168,322],"outcomes":[40,40,58,55,71,55,51,49,66,67],"screen_resolution":1,"trial_type":"horizons-trial","trial_index":127,"time_elapsed":667354,"internal_node_id":"0.0-128.0"},{"horizon":10,"rewards_L":[10,12,12,7,3,17,8,12,12,14],"rewards_R":[31,45,32,32,41,36,33,32,41,38],"key_presses":["arrowright","arrowright","arrowright","arrowleft","arrowleft","arrowleft","arrowright","arrowright","arrowright","arrowleft"],"response_times":[361,428,769,344,293,721,699,391,260,387],"outcomes":[31,45,32,7,3,17,33,32,41,14],"screen_resolution":1,"trial_type":"horizons-trial","trial_index":128,"time_elapsed":672850,"internal_node_id":"0.0-129.0"},{"horizon":5,"rewards_L":[23,29,30,27,41],"rewards_R":[40,44,55,39,41],"key_presses":["arrowright","arrowright","arrowright","arrowleft","arrowright"],"response_times":[596,570,441,359,557],"outcomes":[40,44,55,27,41],"screen_resolution":1,"trial_type":"horizons-trial","trial_index":129,"time_elapsed":675994,"internal_node_id":"0.0-130.0"},{"horizon":10,"rewards_L":[68,56,65,54,52,62,66,54,59,53],"rewards_R":[35,36,39,64,55,45,28,43,47,34],"key_presses":["arrowleft","arrowleft","arrowright","arrowleft","arrowright","arrowright","arrowleft","arrowleft","arrowleft","arrowleft"],"response_times":[470,344,352,328,282,557,450,383,313,256],"outcomes":[68,56,39,54,55,45,66,54,59,53],"screen_resolution":1,"trial_type":"horizons-trial","trial_index":130,"time_elapsed":680648,"internal_node_id":"0.0-131.0"},{"horizon":10,"rewards_L":[54,72,61,38,61,52,55,65,71,55],"rewards_R":[82,86,83,88,81,94,83,84,96,95],"key_presses":["arrowleft","arrowright","arrowleft","arrowleft","arrowright","arrowright","arrowright","arrowright","arrowright","arrowright"],"response_times":[359,367,446,764,244,390,483,344,266,233],"outcomes":[54,86,61,38,81,94,83,84,96,95],"screen_resolution":1,"trial_type":"horizons-trial","trial_index":131,"time_elapsed":685377,"internal_node_id":"0.0-132.0"},{"horizon":10,"rewards_L":[61,49,34,31,39,31,34,39,44,39],"rewards_R":[18,21,28,20,14,23,23,20,17,14],"key_presses":["arrowleft","arrowright","arrowright","arrowleft","arrowleft","arrowright","arrowleft","arrowleft","arrowright","arrowleft"],"response_times":[559,297,407,421,1438,740,387,309,531,373],"outcomes":[61,21,28,31,39,23,34,39,17,39],"screen_resolution":1,"trial_type":"horizons-trial","trial_index":132,"time_elapsed":691512,"internal_node_id":"0.0-133.0"},{"horizon":10,"rewards_L":[53,59,47,61,67,60,53,64,60,66],"rewards_R":[46,32,39,40,27,22,23,39,40,42],"key_presses":["arrowleft","arrowright","arrowright","arrowright","arrowleft","arrowleft","arrowleft","arrowleft","arrowleft","arrowleft"],"response_times":[399,290,729,412,436,510,328,263,299,289],"outcomes":[53,32,39,40,67,60,53,64,60,66],"screen_resolution":1,"trial_type":"horizons-trial","trial_index":133,"time_elapsed":696396,"internal_node_id":"0.0-134.0"},{"horizon":10,"rewards_L":[44,61,47,62,54,56,53,55,36,51],"rewards_R":[53,54,57,53,67,62,60,59,69,63],"key_presses":["arrowright","arrowleft","arrowleft","arrowleft","arrowleft","arrowright","arrowleft","arrowright","arrowright","arrowright"],"response_times":[358,660,345,410,766,751,369,288,386,478],"outcomes":[53,61,47,62,54,62,53,59,69,63],"screen_resolution":1,"trial_type":"horizons-trial","trial_index":134,"time_elapsed":701736,"internal_node_id":"0.0-135.0"},{"horizon":10,"rewards_L":[28,33,36,36,27,51,37,33,22,43],"rewards_R":[34,29,30,27,35,33,41,23,30,44],"key_presses":["arrowleft","arrowright","arrowright","arrowright","arrowleft","arrowright","arrowleft","arrowright","arrowleft","arrowright"],"response_times":[399,393,576,347,357,676,408,349,286,964],"outcomes":[28,29,30,27,27,33,37,23,22,44],"screen_resolution":1,"trial_type":"horizons-trial","trial_index":135,"time_elapsed":707048,"internal_node_id":"0.0-136.0"},{"horizon":10,"rewards_L":[0,9,0,3,6,22,13,11,4,18],"rewards_R":[41,41,44,40,44,51,38,25,30,43],"key_presses":["arrowright","arrowright","arrowleft","arrowleft","arrowright","arrowright","arrowright","arrowright","arrowright","arrowright"],"response_times":[392,360,522,486,417,291,187,156,156,362],"outcomes":[41,41,0,3,44,51,38,25,30,43],"screen_resolution":1,"trial_type":"horizons-trial","trial_index":136,"time_elapsed":710944,"internal_node_id":"0.0-137.0"},{"horizon":5,"rewards_L":[89,77,82,70,83],"rewards_R":[61,53,56,66,69],"key_presses":["arrowleft","arrowleft","arrowright","arrowleft","arrowleft"],"response_times":[409,591,311,524,437],"outcomes":[89,77,56,70,83],"screen_resolution":1,"trial_type":"horizons-trial","trial_index":137,"time_elapsed":714272,"internal_node_id":"0.0-138.0"},{"horizon":5,"rewards_L":[61,47,63,68,63],"rewards_R":[64,75,66,67,62],"key_presses":["arrowright","arrowright","arrowleft","arrowright","arrowright"],"response_times":[360,429,428,393,1023],"outcomes":[64,75,63,67,62],"screen_resolution":1,"trial_type":"horizons-trial","trial_index":138,"time_elapsed":717880,"internal_node_id":"0.0-139.0"},{"horizon":5,"rewards_L":[43,32,44,25,26],"rewards_R":[35,53,38,55,35],"key_presses":["arrowright","arrowleft","arrowleft","arrowleft","arrowright"],"response_times":[368,425,443,751,344],"outcomes":[35,32,44,25,35],"screen_resolution":1,"trial_type":"horizons-trial","trial_index":139,"time_elapsed":720788,"internal_node_id":"0.0-140.0"},{"horizon":5,"rewards_L":[81,58,74,58,71],"rewards_R":[63,71,65,68,52],"key_presses":["arrowright","arrowleft","arrowright","arrowright","arrowright"],"response_times":[403,776,352,638,792],"outcomes":[63,58,65,68,52],"screen_resolution":1,"trial_type":"horizons-trial","trial_index":140,"time_elapsed":724791,"internal_node_id":"0.0-141.0"},{"horizon":10,"rewards_L":[63,46,70,65,61,61,56,67,52,54],"rewards_R":[68,80,75,81,72,65,57,57,53,70],"key_presses":["arrowleft","arrowright","arrowleft","arrowright","arrowright","arrowright","arrowright","arrowright","arrowright","arrowright"],"response_times":[565,330,315,328,415,353,357,328,152,159],"outcomes":[63,80,70,81,72,65,57,57,53,70],"screen_resolution":1,"trial_type":"horizons-trial","trial_index":141,"time_elapsed":729395,"internal_node_id":"0.0-142.0"},{"horizon":5,"rewards_L":[48,37,58,51,44],"rewards_R":[55,50,59,65,49],"key_presses":["arrowright","arrowright","arrowleft","arrowright","arrowright"],"response_times":[304,414,398,346,1502],"outcomes":[55,50,58,65,49],"screen_resolution":1,"trial_type":"horizons-trial","trial_index":142,"time_elapsed":732996,"internal_node_id":"0.0-143.0"},{"horizon":5,"rewards_L":[60,59,59,58,51],"rewards_R":[39,34,52,38,28],"key_presses":["arrowright","arrowleft","arrowright","arrowright","arrowright"],"response_times":[384,448,317,591,599],"outcomes":[39,59,52,38,28],"screen_resolution":1,"trial_type":"horizons-trial","trial_index":143,"time_elapsed":736196,"internal_node_id":"0.0-144.0"},{"horizon":5,"rewards_L":[27,35,38,47,41],"rewards_R":[35,34,47,26,42],"key_presses":["arrowright","arrowleft","arrowleft","arrowleft","arrowleft"],"response_times":[371,392,391,320,784],"outcomes":[35,35,38,47,41],"screen_resolution":1,"trial_type":"horizons-trial","trial_index":144,"time_elapsed":740122,"internal_node_id":"0.0-145.0"},{"horizon":10,"rewards_L":[42,54,57,43,50,50,57,42,44,42],"rewards_R":[48,48,39,46,29,56,52,33,40,37],"key_presses":["arrowright","arrowleft","arrowleft","arrowright","arrowright","arrowleft","arrowleft","arrowleft","arrowleft","arrowleft"],"response_times":[373,383,362,447,422,314,293,188,167,136],"outcomes":[48,54,57,46,29,50,57,42,44,42],"screen_resolution":1,"trial_type":"horizons-trial","trial_index":145,"time_elapsed":744406,"internal_node_id":"0.0-146.0"},{"horizon":10,"rewards_L":[57,53,51,62,62,51,60,66,53,64],"rewards_R":[74,72,81,61,77,63,83,63,83,87],"key_presses":["arrowleft","arrowright","arrowleft","arrowleft","arrowright","arrowright","arrowright","arrowleft","arrowright","arrowright"],"response_times":[327,322,276,400,493,323,352,341,392,216],"outcomes":[57,72,51,62,77,63,83,66,83,87],"screen_resolution":1,"trial_type":"horizons-trial","trial_index":146,"time_elapsed":748889,"internal_node_id":"0.0-147.0"},{"horizon":10,"rewards_L":[69,62,49,58,53,66,46,55,58,56],"rewards_R":[65,53,51,61,57,56,66,43,64,64],"key_presses":["arrowright","arrowleft","arrowleft","arrowleft","arrowright","arrowright","arrowleft","arrowright","arrowright","arrowright"],"response_times":[361,339,385,345,416,636,619,497,274,779],"outcomes":[65,62,49,58,57,56,46,43,64,64],"screen_resolution":1,"trial_type":"horizons-trial","trial_index":147,"time_elapsed":754587,"internal_node_id":"0.0-148.0"},{"horizon":5,"rewards_L":[16,38,19,29,39],"rewards_R":[51,33,49,40,34],"key_presses":["arrowright","arrowleft","arrowleft","arrowleft","arrowright"],"response_times":[349,362,453,632,336],"outcomes":[51,38,19,29,34],"screen_resolution":1,"trial_type":"horizons-trial","trial_index":148,"time_elapsed":757482,"internal_node_id":"0.0-149.0"},{"horizon":5,"rewards_L":[46,43,49,48,41],"rewards_R":[50,44,51,53,67],"key_presses":["arrowleft","arrowright","arrowleft","arrowleft","arrowright"],"response_times":[615,694,360,491,317],"outcomes":[46,44,49,48,67],"screen_resolution":1,"trial_type":"horizons-trial","trial_index":149,"time_elapsed":761036,"internal_node_id":"0.0-150.0"},{"horizon":5,"rewards_L":[76,59,68,70,71],"rewards_R":[62,80,72,55,78],"key_presses":["arrowleft","arrowright","arrowleft","arrowleft","arrowright"],"response_times":[452,319,385,742,384],"outcomes":[76,80,68,70,78],"screen_resolution":1,"trial_type":"horizons-trial","trial_index":150,"time_elapsed":764488,"internal_node_id":"0.0-151.0"},{"horizon":10,"rewards_L":[78,57,47,53,79,51,64,50,49,59],"rewards_R":[66,59,48,58,67,54,66,72,71,67],"key_presses":["arrowleft","arrowleft","arrowright","arrowright","arrowleft","arrowright","arrowleft","arrowright","arrowright","arrowright"],"response_times":[448,320,481,630,314,379,652,828,852,202],"outcomes":[78,57,48,58,79,54,64,72,71,67],"screen_resolution":1,"trial_type":"horizons-trial","trial_index":151,"time_elapsed":770170,"internal_node_id":"0.0-152.0"},{"horizon":10,"rewards_L":[50,52,46,48,57,46,53,40,38,53],"rewards_R":[32,42,39,35,38,42,49,39,35,42],"key_presses":["arrowleft","arrowright","arrowright","arrowleft","arrowleft","arrowright","arrowleft","arrowleft","arrowright","arrowleft"],"response_times":[789,313,521,349,406,546,426,382,312,548],"outcomes":[50,42,39,48,57,42,53,40,35,53],"screen_resolution":1,"trial_type":"horizons-trial","trial_index":152,"time_elapsed":775520,"internal_node_id":"0.0-153.0"},{"horizon":10,"rewards_L":[44,46,38,40,56,37,41,47,44,40],"rewards_R":[41,35,42,60,35,33,35,44,27,39],"key_presses":["arrowleft","arrowleft","arrowright","arrowleft","arrowright","arrowleft","arrowleft","arrowright","arrowright","arrowleft"],"response_times":[499,700,385,416,359,357,401,521,376,306],"outcomes":[44,46,42,40,35,37,41,44,27,40],"screen_resolution":1,"trial_type":"horizons-trial","trial_index":153,"time_elapsed":780928,"internal_node_id":"0.0-154.0"},{"horizon":10,"rewards_L":[69,58,49,64,52,59,56,52,63,58],"rewards_R":[42,54,46,45,55,39,58,49,39,56],"key_presses":["arrowleft","arrowright","arrowright","arrowright","arrowleft","arrowright","arrowleft","arrowleft","arrowleft","arrowleft"],"response_times":[431,345,633,354,312,780,445,341,247,268],"outcomes":[69,54,46,45,52,39,56,52,63,58],"screen_resolution":1,"trial_type":"horizons-trial","trial_index":154,"time_elapsed":786221,"internal_node_id":"0.0-155.0"},{"horizon":10,"rewards_L":[37,31,44,37,48,40,38,35,48,45],"rewards_R":[49,33,32,39,65,32,53,32,43,41],"key_presses":["arrowleft","arrowleft","arrowright","arrowright","arrowleft","arrowleft","arrowleft","arrowright","arrowleft","arrowleft"],"response_times":[377,1401,12769,389,499,606,391,314,331,346],"outcomes":[37,31,32,39,48,40,38,32,48,45],"screen_resolution":1,"trial_type":"horizons-trial","trial_index":155,"time_elapsed":804772,"internal_node_id":"0.0-156.0"},{"horizon":10,"rewards_L":[83,100,84,86,84,86,91,100,98,81],"rewards_R":[62,58,64,66,62,60,61,54,59,50],"key_presses":["arrowright","arrowright","arrowleft","arrowleft","arrowleft","arrowleft","arrowleft","arrowleft","arrowleft","arrowleft"],"response_times":[443,350,529,327,423,329,266,172,133,120],"outcomes":[62,58,84,86,84,86,91,100,98,81],"screen_resolution":1,"trial_type":"horizons-trial","trial_index":156,"time_elapsed":808726,"internal_node_id":"0.0-157.0"},{"horizon":10,"rewards_L":[38,26,26,48,34,41,32,23,38,46],"rewards_R":[32,46,51,50,38,42,68,63,50,51],"key_presses":["arrowleft","arrowright","arrowleft","arrowleft","arrowright","arrowleft","arrowleft","arrowright","arrowright","arrowright"],"response_times":[412,324,321,664,394,607,431,307,539,389],"outcomes":[38,46,26,48,38,41,32,63,50,51],"screen_resolution":1,"trial_type":"horizons-trial","trial_index":157,"time_elapsed":813646,"internal_node_id":"0.0-158.0"},{"horizon":5,"rewards_L":[99,97,70,99,84],"rewards_R":[63,68,70,60,58],"key_presses":["arrowleft","arrowleft","arrowright","arrowleft","arrowleft"],"response_times":[443,388,594,265,483],"outcomes":[99,97,70,99,84],"screen_resolution":1,"trial_type":"horizons-trial","trial_index":158,"time_elapsed":816519,"internal_node_id":"0.0-159.0"},{"horizon":10,"rewards_L":[56,69,79,60,64,63,67,70,66,52],"rewards_R":[42,52,40,46,50,51,46,58,46,50],"key_presses":["arrowleft","arrowright","arrowright","arrowright","arrowleft","arrowleft","arrowright","arrowleft","arrowleft","arrowleft"],"response_times":[432,432,483,519,359,1278,761,288,192,285],"outcomes":[56,52,40,46,64,63,46,70,66,52],"screen_resolution":1,"trial_type":"horizons-trial","trial_index":159,"time_elapsed":822207,"internal_node_id":"0.0-160.0"},{"horizon":10,"rewards_L":[47,25,42,45,41,45,50,36,45,39],"rewards_R":[27,11,11,14,31,28,23,24,17,30],"key_presses":["arrowleft","arrowright","arrowright","arrowright","arrowleft","arrowright","arrowleft","arrowleft","arrowleft","arrowleft"],"response_times":[316,294,566,335,441,543,320,234,230,309],"outcomes":[47,11,11,14,41,28,50,36,45,39],"screen_resolution":1,"trial_type":"horizons-trial","trial_index":160,"time_elapsed":826856,"internal_node_id":"0.0-161.0"},{"horizon":10,"rewards_L":[40,46,22,45,33,27,39,48,34,39],"rewards_R":[66,64,57,49,61,61,74,56,64,66],"key_presses":["arrowleft","arrowright","arrowleft","arrowright","arrowright","arrowright","arrowright","arrowright","arrowright","arrowright"],"response_times":[337,343,339,348,361,200,159,145,157,189],"outcomes":[40,64,22,49,61,61,74,56,64,66],"screen_resolution":1,"trial_type":"horizons-trial","trial_index":161,"time_elapsed":830545,"internal_node_id":"0.0-162.0"},{"horizon":5,"rewards_L":[66,57,51,65,64],"rewards_R":[53,37,36,40,45],"key_presses":["arrowleft","arrowright","arrowright","arrowleft","arrowleft"],"response_times":[421,339,428,345,419],"outcomes":[66,37,36,65,64],"screen_resolution":1,"trial_type":"horizons-trial","trial_index":162,"time_elapsed":833036,"internal_node_id":"0.0-163.0"},{"horizon":10,"rewards_L":[13,32,33,21,28,27,39,22,35,31],"rewards_R":[21,33,33,34,32,29,39,38,36,58],"key_presses":["arrowright","arrowleft","arrowleft","arrowleft","arrowright","arrowleft","arrowright","arrowright","arrowright","arrowright"],"response_times":[433,707,630,408,913,1318,544,651,238,225],"outcomes":[21,32,33,21,32,27,39,38,36,58],"screen_resolution":1,"trial_type":"horizons-trial","trial_index":163,"time_elapsed":840518,"internal_node_id":"0.0-164.0"},{"horizon":10,"rewards_L":[33,40,42,28,23,34,56,33,32,34],"rewards_R":[46,55,50,55,52,48,45,57,60,65],"key_presses":["arrowright","arrowright","arrowleft","arrowright","arrowright","arrowright","arrowleft","arrowleft","arrowright","arrowright"],"response_times":[3496,1401,960,447,336,16304,1113,630,497,351],"outcomes":[46,55,42,55,52,48,56,33,60,65],"screen_resolution":1,"trial_type":"horizons-trial","trial_index":164,"time_elapsed":866903,"internal_node_id":"0.0-165.0"},{"horizon":5,"rewards_L":[51,54,45,35,48],"rewards_R":[48,43,35,50,40],"key_presses":["arrowleft","arrowright","arrowright","arrowleft","arrowright"],"response_times":[634,430,689,439,681],"outcomes":[51,43,35,35,40],"screen_resolution":1,"trial_type":"horizons-trial","trial_index":165,"time_elapsed":874290,"internal_node_id":"0.0-166.0"},{"horizon":5,"rewards_L":[63,48,67,65,54],"rewards_R":[89,86,92,86,87],"key_presses":["arrowleft","arrowright","arrowleft","arrowleft","arrowright"],"response_times":[605,303,321,738,302],"outcomes":[63,86,67,65,87],"screen_resolution":1,"trial_type":"horizons-trial","trial_index":166,"time_elapsed":877408,"internal_node_id":"0.0-167.0"},{"horizon":5,"rewards_L":[16,15,23,32,20],"rewards_R":[27,30,59,28,32],"key_presses":["arrowleft","arrowright","arrowleft","arrowright","arrowright"],"response_times":[417,335,299,399,971],"outcomes":[16,30,23,28,32],"screen_resolution":1,"trial_type":"horizons-trial","trial_index":167,"time_elapsed":880655,"internal_node_id":"0.0-168.0"},{"horizon":10,"rewards_L":[38,38,34,39,26,58,30,53,46,31],"rewards_R":[69,42,67,61,52,59,64,62,53,55],"key_presses":["arrowright","arrowright","arrowleft","arrowright","arrowright","arrowright","arrowright","arrowright","arrowright","arrowright"],"response_times":[350,317,645,390,409,352,301,227,233,232],"outcomes":[69,42,34,61,52,59,64,62,53,55],"screen_resolution":1,"trial_type":"horizons-trial","trial_index":168,"time_elapsed":885383,"internal_node_id":"0.0-169.0"},{"horizon":5,"rewards_L":[88,79,66,95,82],"rewards_R":[63,57,59,61,63],"key_presses":["arrowleft","arrowleft","arrowright","arrowright","arrowleft"],"response_times":[481,409,383,559,334],"outcomes":[88,79,59,61,82],"screen_resolution":1,"trial_type":"horizons-trial","trial_index":169,"time_elapsed":888154,"internal_node_id":"0.0-170.0"},{"horizon":5,"rewards_L":[50,50,71,63,55],"rewards_R":[58,58,56,57,53],"key_presses":["arrowleft","arrowright","arrowright","arrowright","arrowright"],"response_times":[332,354,547,293,284],"outcomes":[50,58,56,57,53],"screen_resolution":1,"trial_type":"horizons-trial","trial_index":170,"time_elapsed":891054,"internal_node_id":"0.0-171.0"},{"horizon":5,"rewards_L":[55,58,64,65,68],"rewards_R":[71,57,77,63,68],"key_presses":["arrowright","arrowright","arrowleft","arrowright","arrowright"],"response_times":[350,484,506,301,501],"outcomes":[71,57,64,63,68],"screen_resolution":1,"trial_type":"horizons-trial","trial_index":171,"time_elapsed":893866,"internal_node_id":"0.0-172.0"},{"horizon":10,"rewards_L":[37,32,24,28,36,37,42,25,20,23],"rewards_R":[64,54,68,59,55,46,72,58,51,53],"key_presses":["arrowleft","arrowright","arrowright","arrowleft","arrowright","arrowright","arrowright","arrowright","arrowright","arrowright"],"response_times":[6976,318,334,809,401,320,347,197,199,248],"outcomes":[37,54,68,28,55,46,72,58,51,53],"screen_resolution":1,"trial_type":"horizons-trial","trial_index":172,"time_elapsed":904646,"internal_node_id":"0.0-173.0"},{"horizon":10,"rewards_L":[54,44,35,31,46,46,47,44,41,54],"rewards_R":[56,69,75,69,62,71,62,53,49,56],"key_presses":["arrowright","arrowright","arrowleft","arrowleft","arrowright","arrowright","arrowright","arrowright","arrowright","arrowright"],"response_times":[330,414,257,365,449,385,200,160,154,147],"outcomes":[56,69,35,31,62,71,62,53,49,56],"screen_resolution":1,"trial_type":"horizons-trial","trial_index":173,"time_elapsed":908028,"internal_node_id":"0.0-174.0"},{"horizon":5,"rewards_L":[41,39,38,47,36],"rewards_R":[54,69,50,48,56],"key_presses":["arrowright","arrowleft","arrowleft","arrowleft","arrowright"],"response_times":[391,468,407,546,289],"outcomes":[54,39,38,47,56],"screen_resolution":1,"trial_type":"horizons-trial","trial_index":174,"time_elapsed":910817,"internal_node_id":"0.0-175.0"},{"horizon":5,"rewards_L":[36,30,34,43,30],"rewards_R":[31,42,41,35,28],"key_presses":["arrowleft","arrowright","arrowleft","arrowright","arrowright"],"response_times":[421,360,657,528,556],"outcomes":[36,42,34,35,28],"screen_resolution":1,"trial_type":"horizons-trial","trial_index":175,"time_elapsed":914151,"internal_node_id":"0.0-176.0"},{"horizon":5,"rewards_L":[39,46,45,41,42],"rewards_R":[51,49,57,51,52],"key_presses":["arrowleft","arrowright","arrowright","arrowleft","arrowright"],"response_times":[368,331,622,545,278],"outcomes":[39,49,57,41,52],"screen_resolution":1,"trial_type":"horizons-trial","trial_index":176,"time_elapsed":916815,"internal_node_id":"0.0-177.0"},{"horizon":5,"rewards_L":[47,60,55,62,64],"rewards_R":[35,52,47,70,49],"key_presses":["arrowleft","arrowright","arrowright","arrowright","arrowright"],"response_times":[407,270,507,451,600],"outcomes":[47,52,47,70,49],"screen_resolution":1,"trial_type":"horizons-trial","trial_index":177,"time_elapsed":919628,"internal_node_id":"0.0-178.0"},{"horizon":5,"rewards_L":[62,81,60,62,60],"rewards_R":[75,64,55,70,52],"key_presses":["arrowright","arrowleft","arrowleft","arrowright","arrowright"],"response_times":[378,462,593,357,549],"outcomes":[75,81,60,70,52],"screen_resolution":1,"trial_type":"horizons-trial","trial_index":178,"time_elapsed":922559,"internal_node_id":"0.0-179.0"},{"horizon":5,"rewards_L":[65,60,75,45,58],"rewards_R":[83,82,92,71,64],"key_presses":["arrowright","arrowright","arrowleft","arrowright","arrowright"],"response_times":[369,341,706,360,527],"outcomes":[83,82,75,71,64],"screen_resolution":1,"trial_type":"horizons-trial","trial_index":179,"time_elapsed":925527,"internal_node_id":"0.0-180.0"},{"horizon":5,"rewards_L":[0,10,0,6,17],"rewards_R":[42,48,49,63,33],"key_presses":["arrowright","arrowleft","arrowleft","arrowleft","arrowleft"],"response_times":[362,304,687,461,628],"outcomes":[42,10,0,6,17],"screen_resolution":1,"trial_type":"horizons-trial","trial_index":180,"time_elapsed":928494,"internal_node_id":"0.0-181.0"},{"horizon":10,"rewards_L":[82,76,79,78,93,71,72,83,77,84],"rewards_R":[65,67,52,52,61,47,71,66,62,52],"key_presses":["arrowleft","arrowleft","arrowright","arrowright","arrowleft","arrowleft","arrowleft","arrowleft","arrowleft","arrowleft"],"response_times":[368,341,716,438,1273,423,279,169,135,154],"outcomes":[82,76,52,52,93,71,72,83,77,84],"screen_resolution":1,"trial_type":"horizons-trial","trial_index":181,"time_elapsed":933791,"internal_node_id":"0.0-182.0"},{"horizon":5,"rewards_L":[44,48,37,41,44],"rewards_R":[33,27,27,16,15],"key_presses":["arrowleft","arrowleft","arrowleft","arrowright","arrowleft"],"response_times":[362,449,320,356,500],"outcomes":[44,48,37,16,44],"screen_resolution":1,"trial_type":"horizons-trial","trial_index":182,"time_elapsed":936670,"internal_node_id":"0.0-183.0"},{"horizon":10,"rewards_L":[59,57,47,62,60,59,50,72,59,56],"rewards_R":[42,44,45,47,30,51,50,32,53,37],"key_presses":["arrowright","arrowleft","arrowright","arrowright","arrowleft","arrowleft","arrowleft","arrowleft","arrowleft","arrowleft"],"response_times":[360,368,343,489,2394,454,280,155,157,123],"outcomes":[42,57,45,47,60,59,50,72,59,56],"screen_resolution":1,"trial_type":"horizons-trial","trial_index":183,"time_elapsed":942367,"internal_node_id":"0.0-184.0"},{"horizon":10,"rewards_L":[57,50,77,69,52,47,68,54,66,68],"rewards_R":[16,22,27,34,20,14,23,34,34,29],"key_presses":["arrowleft","arrowright","arrowright","arrowleft","arrowleft","arrowright","arrowleft","arrowleft","arrowleft","arrowleft"],"response_times":[424,351,483,379,464,800,322,180,125,149],"outcomes":[57,22,27,69,52,14,68,54,66,68],"screen_resolution":1,"trial_type":"horizons-trial","trial_index":184,"time_elapsed":947055,"internal_node_id":"0.0-185.0"},{"horizon":10,"rewards_L":[40,49,58,49,68,48,46,55,35,54],"rewards_R":[59,58,45,68,63,57,49,62,49,75],"key_presses":["arrowright","arrowleft","arrowleft","arrowright","arrowleft","arrowright","arrowright","arrowright","arrowright","arrowright"],"response_times":[1516,459,545,311,337,623,355,392,305,181],"outcomes":[59,49,58,68,68,57,49,62,49,75],"screen_resolution":1,"trial_type":"horizons-trial","trial_index":185,"time_elapsed":953083,"internal_node_id":"0.0-186.0"},{"horizon":5,"rewards_L":[81,80,74,72,76],"rewards_R":[32,36,38,36,32],"key_presses":["arrowright","arrowleft","arrowright","arrowleft","arrowleft"],"response_times":[22043,584,435,238,238],"outcomes":[32,80,38,72,76],"screen_resolution":1,"trial_type":"horizons-trial","trial_index":186,"time_elapsed":977190,"internal_node_id":"0.0-187.0"},{"horizon":5,"rewards_L":[29,37,21,23,31],"rewards_R":[27,39,44,48,33],"key_presses":["arrowright","arrowright","arrowright","arrowleft","arrowright"],"response_times":[369,380,332,368,651],"outcomes":[27,39,44,23,33],"screen_resolution":1,"trial_type":"horizons-trial","trial_index":187,"time_elapsed":980024,"internal_node_id":"0.0-188.0"},{"horizon":5,"rewards_L":[72,56,58,54,56],"rewards_R":[43,63,63,53,47],"key_presses":["arrowleft","arrowleft","arrowright","arrowleft","arrowleft"],"response_times":[357,333,357,396,559],"outcomes":[72,56,63,54,56],"screen_resolution":1,"trial_type":"horizons-trial","trial_index":188,"time_elapsed":982649,"internal_node_id":"0.0-189.0"},{"horizon":10,"rewards_L":[49,39,52,51,44,42,57,48,61,69],"rewards_R":[55,58,66,38,68,59,56,56,61,58],"key_presses":["arrowright","arrowleft","arrowright","arrowleft","arrowleft","arrowleft","arrowleft","arrowleft","arrowleft","arrowleft"],"response_times":[462,391,720,312,296,188,142,158,179,285],"outcomes":[55,39,66,51,44,42,57,48,61,69],"screen_resolution":1,"trial_type":"horizons-trial","trial_index":189,"time_elapsed":986478,"internal_node_id":"0.0-190.0"},{"horizon":5,"rewards_L":[30,46,43,42,36],"rewards_R":[60,39,43,56,40],"key_presses":["arrowleft","arrowright","arrowleft","arrowright","arrowleft"],"response_times":[345,714,275,603,264],"outcomes":[30,39,43,56,36],"screen_resolution":1,"trial_type":"horizons-trial","trial_index":190,"time_elapsed":989463,"internal_node_id":"0.0-191.0"},{"horizon":5,"rewards_L":[34,47,32,45,41],"rewards_R":[58,60,60,58,68],"key_presses":["arrowright","arrowleft","arrowright","arrowleft","arrowleft"],"response_times":[408,328,357,299,494],"outcomes":[58,47,60,45,41],"screen_resolution":1,"trial_type":"horizons-trial","trial_index":191,"time_elapsed":992086,"internal_node_id":"0.0-192.0"},{"horizon":10,"rewards_L":[57,68,57,68,67,67,44,48,61,54],"rewards_R":[36,47,35,46,72,37,52,56,29,54],"key_presses":["arrowleft","arrowright","arrowright","arrowleft","arrowleft","arrowleft","arrowleft","arrowleft","arrowleft","arrowleft"],"response_times":[388,355,691,327,207,296,152,168,140,282],"outcomes":[57,47,35,68,67,67,44,48,61,54],"screen_resolution":1,"trial_type":"horizons-trial","trial_index":192,"time_elapsed":996090,"internal_node_id":"0.0-193.0"},{"horizon":5,"rewards_L":[54,68,51,67,55],"rewards_R":[46,37,29,46,52],"key_presses":["arrowright","arrowleft","arrowleft","arrowright","arrowleft"],"response_times":[382,301,417,713,262],"outcomes":[46,68,51,46,55],"screen_resolution":1,"trial_type":"horizons-trial","trial_index":193,"time_elapsed":998985,"internal_node_id":"0.0-194.0"},{"horizon":10,"rewards_L":[71,63,65,66,74,76,66,56,77,59],"rewards_R":[49,42,36,34,26,44,32,37,30,54],"key_presses":["arrowleft","arrowleft","arrowright","arrowleft","arrowleft","arrowleft","arrowleft","arrowleft","arrowleft","arrowleft"],"response_times":[389,327,529,521,343,348,190,162,190,289],"outcomes":[71,63,36,66,74,76,66,56,77,59],"screen_resolution":1,"trial_type":"horizons-trial","trial_index":194,"time_elapsed":1003337,"internal_node_id":"0.0-195.0"},{"horizon":10,"rewards_L":[44,38,28,32,22,46,34,47,32,33],"rewards_R":[58,55,52,62,45,56,40,60,62,53],"key_presses":["arrowright","arrowleft","arrowleft","arrowright","arrowleft","arrowleft","arrowleft","arrowleft","arrowleft","arrowleft"],"response_times":[384,299,339,447,255,332,165,156,161,181],"outcomes":[58,38,28,62,22,46,34,47,32,33],"screen_resolution":1,"trial_type":"horizons-trial","trial_index":195,"time_elapsed":1006663,"internal_node_id":"0.0-196.0"},{"horizon":10,"rewards_L":[42,43,58,49,61,46,49,53,52,47],"rewards_R":[65,51,62,54,58,56,53,74,63,63],"key_presses":["arrowright","arrowright","arrowright","arrowleft","arrowleft","arrowleft","arrowleft","arrowleft","arrowleft","arrowleft"],"response_times":[336,522,320,308,254,178,154,303,184,249],"outcomes":[65,51,62,49,61,46,49,53,52,47],"screen_resolution":1,"trial_type":"horizons-trial","trial_index":196,"time_elapsed":1010128,"internal_node_id":"0.0-197.0"},{"horizon":10,"rewards_L":[84,64,67,62,62,67,69,70,61,62],"rewards_R":[57,61,60,43,63,55,59,50,62,58],"key_presses":["arrowright","arrowleft","arrowright","arrowright","arrowleft","arrowleft","arrowleft","arrowleft","arrowleft","arrowleft"],"response_times":[364,389,488,456,330,244,159,143,171,342],"outcomes":[57,64,60,43,62,67,69,70,61,62],"screen_resolution":1,"trial_type":"horizons-trial","trial_index":197,"time_elapsed":1013810,"internal_node_id":"0.0-198.0"},{"horizon":10,"rewards_L":[45,45,66,56,46,55,49,65,69,74],"rewards_R":[93,88,93,77,92,96,79,94,92,98],"key_presses":["arrowright","arrowright","arrowleft","arrowright","arrowright","arrowright","arrowright","arrowright","arrowright","arrowright"],"response_times":[372,364,345,703,712,324,164,155,178,291],"outcomes":[93,88,66,77,92,96,79,94,92,98],"screen_resolution":1,"trial_type":"horizons-trial","trial_index":198,"time_elapsed":1018039,"internal_node_id":"0.0-199.0"},{"horizon":10,"rewards_L":[81,84,71,71,80,84,75,89,84,98],"rewards_R":[60,56,71,53,66,51,43,71,60,68],"key_presses":["arrowright","arrowleft","arrowleft","arrowright","arrowleft","arrowleft","arrowleft","arrowleft","arrowleft","arrowleft"],"response_times":[431,400,321,666,183,166,149,162,140,232],"outcomes":[60,84,71,53,80,84,75,89,84,98],"screen_resolution":1,"trial_type":"horizons-trial","trial_index":199,"time_elapsed":1021590,"internal_node_id":"0.0-200.0"},{"horizon":5,"rewards_L":[31,34,25,24,50],"rewards_R":[58,68,71,44,57],"key_presses":["arrowleft","arrowleft","arrowright","arrowright","arrowright"],"response_times":[468,388,398,467,238],"outcomes":[31,34,71,44,57],"screen_resolution":1,"trial_type":"horizons-trial","trial_index":200,"time_elapsed":1024622,"internal_node_id":"0.0-201.0"},{"horizon":10,"rewards_L":[24,40,48,45,40,41,29,35,30,35],"rewards_R":[16,9,28,12,18,9,21,12,11,11],"key_presses":["arrowleft","arrowleft","arrowleft","arrowright","arrowright","arrowleft","arrowleft","arrowleft","arrowleft","arrowleft"],"response_times":[390,585,547,317,354,415,233,152,141,169],"outcomes":[24,40,48,12,18,41,29,35,30,35],"screen_resolution":1,"trial_type":"horizons-trial","trial_index":201,"time_elapsed":1028669,"internal_node_id":"0.0-202.0"},{"horizon":10,"rewards_L":[44,55,25,37,65,39,44,33,37,44],"rewards_R":[30,11,43,22,42,22,27,20,19,33],"key_presses":["arrowleft","arrowleft","arrowleft","arrowright","arrowleft","arrowleft","arrowleft","arrowleft","arrowleft","arrowleft"],"response_times":[347,466,343,342,620,207,161,144,166,164],"outcomes":[44,55,25,22,65,39,44,33,37,44],"screen_resolution":1,"trial_type":"horizons-trial","trial_index":202,"time_elapsed":1032752,"internal_node_id":"0.0-203.0"},{"horizon":10,"rewards_L":[59,65,67,65,53,58,56,58,52,61],"rewards_R":[68,70,83,77,79,73,69,81,75,77],"key_presses":["arrowright","arrowleft","arrowright","arrowleft","arrowright","arrowright","arrowright","arrowright","arrowright","arrowright"],"response_times":[950,345,365,365,454,895,270,170,165,337],"outcomes":[68,65,83,65,79,73,69,81,75,77],"screen_resolution":1,"trial_type":"horizons-trial","trial_index":203,"time_elapsed":1037579,"internal_node_id":"0.0-204.0"},{"horizon":10,"rewards_L":[67,68,76,60,62,72,70,68,58,72],"rewards_R":[64,64,51,60,79,68,52,76,59,68],"key_presses":["arrowleft","arrowleft","arrowright","arrowleft","arrowright","arrowright","arrowright","arrowright","arrowright","arrowright"],"response_times":[7825,363,374,443,290,805,174,170,190,231],"outcomes":[67,68,51,60,79,68,52,76,59,68],"screen_resolution":1,"trial_type":"horizons-trial","trial_index":204,"time_elapsed":1048990,"internal_node_id":"0.0-205.0"},{"horizon":5,"rewards_L":[28,19,32,24,41],"rewards_R":[44,37,46,36,47],"key_presses":["arrowleft","arrowleft","arrowright","arrowright","arrowright"],"response_times":[422,382,336,385,282],"outcomes":[28,19,46,36,47],"screen_resolution":1,"trial_type":"horizons-trial","trial_index":205,"time_elapsed":1051878,"internal_node_id":"0.0-206.0"},{"horizon":10,"rewards_L":[56,50,64,50,54,62,61,59,77,46],"rewards_R":[67,58,47,50,50,57,47,50,46,41],"key_presses":["arrowleft","arrowleft","arrowright","arrowright","arrowleft","arrowleft","arrowleft","arrowleft","arrowleft","arrowleft"],"response_times":[539,304,357,833,347,341,212,164,191,246],"outcomes":[56,50,47,50,54,62,61,59,77,46],"screen_resolution":1,"trial_type":"horizons-trial","trial_index":206,"time_elapsed":1056535,"internal_node_id":"0.0-207.0"},{"horizon":5,"rewards_L":[38,26,31,46,40],"rewards_R":[11,28,2,19,20],"key_presses":["arrowleft","arrowleft","arrowright","arrowright","arrowleft"],"response_times":[361,415,328,1000,288],"outcomes":[38,26,2,19,40],"screen_resolution":1,"trial_type":"horizons-trial","trial_index":207,"time_elapsed":1059640,"internal_node_id":"0.0-208.0"},{"horizon":10,"rewards_L":[2,3,23,17,7,14,6,0,6,12],"rewards_R":[49,37,55,48,46,40,42,41,41,59],"key_presses":["arrowright","arrowleft","arrowleft","arrowleft","arrowright","arrowright","arrowright","arrowright","arrowright","arrowright"],"response_times":[368,605,336,467,476,226,180,172,153,279],"outcomes":[49,3,23,17,46,40,42,41,41,59],"screen_resolution":1,"trial_type":"horizons-trial","trial_index":208,"time_elapsed":1063471,"internal_node_id":"0.0-209.0"},{"horizon":5,"rewards_L":[62,61,68,54,58],"rewards_R":[60,42,37,63,59],"key_presses":["arrowleft","arrowleft","arrowleft","arrowright","arrowright"],"response_times":[709,460,716,360,649],"outcomes":[62,61,68,63,59],"screen_resolution":1,"trial_type":"horizons-trial","trial_index":209,"time_elapsed":1067687,"internal_node_id":"0.0-210.0"},{"horizon":5,"rewards_L":[83,72,78,48,73],"rewards_R":[59,57,68,53,57],"key_presses":["arrowleft","arrowright","arrowright","arrowleft","arrowleft"],"response_times":[409,495,806,274,241],"outcomes":[83,57,68,48,73],"screen_resolution":1,"trial_type":"horizons-trial","trial_index":210,"time_elapsed":1071000,"internal_node_id":"0.0-211.0"},{"horizon":10,"rewards_L":[52,57,43,66,59,59,53,66,65,57],"rewards_R":[61,62,65,71,67,50,59,74,63,65],"key_presses":["arrowleft","arrowright","arrowleft","arrowleft","arrowright","arrowright","arrowright","arrowright","arrowright","arrowright"],"response_times":[349,415,327,464,340,597,192,234,241,261],"outcomes":[52,62,43,66,67,50,59,74,63,65],"screen_resolution":1,"trial_type":"horizons-trial","trial_index":211,"time_elapsed":1075102,"internal_node_id":"0.0-212.0"},{"horizon":5,"rewards_L":[61,68,48,43,49],"rewards_R":[87,60,75,67,58],"key_presses":["arrowright","arrowleft","arrowright","arrowleft","arrowright"],"response_times":[360,479,324,716,387],"outcomes":[87,68,75,43,58],"screen_resolution":1,"trial_type":"horizons-trial","trial_index":212,"time_elapsed":1077951,"internal_node_id":"0.0-213.0"},{"horizon":5,"rewards_L":[20,14,0,12,27],"rewards_R":[49,30,52,46,40],"key_presses":["arrowright","arrowleft","arrowleft","arrowright","arrowright"],"response_times":[441,592,513,384,441],"outcomes":[49,14,0,46,40],"screen_resolution":1,"trial_type":"horizons-trial","trial_index":213,"time_elapsed":1081445,"internal_node_id":"0.0-214.0"},{"horizon":5,"rewards_L":[65,75,58,74,75],"rewards_R":[52,52,54,72,48],"key_presses":["arrowright","arrowleft","arrowright","arrowright","arrowleft"],"response_times":[409,418,371,375,396],"outcomes":[52,75,54,72,75],"screen_resolution":1,"trial_type":"horizons-trial","trial_index":214,"time_elapsed":1084581,"internal_node_id":"0.0-215.0"},{"horizon":10,"rewards_L":[35,40,39,49,45,32,27,43,43,36],"rewards_R":[31,36,40,48,40,53,46,44,42,61],"key_presses":["arrowleft","arrowright","arrowright","arrowleft","arrowright","arrowright","arrowright","arrowright","arrowright","arrowright"],"response_times":[388,431,492,372,333,367,336,193,176,277],"outcomes":[35,36,40,49,40,53,46,44,42,61],"screen_resolution":1,"trial_type":"horizons-trial","trial_index":215,"time_elapsed":1089016,"internal_node_id":"0.0-216.0"},{"horizon":5,"rewards_L":[67,61,66,68,61],"rewards_R":[52,43,46,61,49],"key_presses":["arrowleft","arrowright","arrowleft","arrowright","arrowleft"],"response_times":[629,328,401,390,216],"outcomes":[67,43,66,61,61],"screen_resolution":1,"trial_type":"horizons-trial","trial_index":216,"time_elapsed":1092110,"internal_node_id":"0.0-217.0"},{"horizon":5,"rewards_L":[56,43,39,35,42],"rewards_R":[67,78,54,58,62],"key_presses":["arrowright","arrowright","arrowleft","arrowleft","arrowright"],"response_times":[368,447,472,442,331],"outcomes":[67,78,39,35,62],"screen_resolution":1,"trial_type":"horizons-trial","trial_index":217,"time_elapsed":1094814,"internal_node_id":"0.0-218.0"},{"horizon":5,"rewards_L":[49,52,40,37,58],"rewards_R":[47,41,34,40,45],"key_presses":["arrowright","arrowleft","arrowright","arrowright","arrowleft"],"response_times":[500,386,469,408,320],"outcomes":[47,52,34,40,58],"screen_resolution":1,"trial_type":"horizons-trial","trial_index":218,"time_elapsed":1097935,"internal_node_id":"0.0-219.0"},{"horizon":10,"rewards_L":[54,48,62,64,73,46,70,63,58,63],"rewards_R":[74,70,70,74,55,63,78,61,59,54],"key_presses":["arrowright","arrowright","arrowleft","arrowright","arrowright","arrowright","arrowright","arrowright","arrowright","arrowright"],"response_times":[498,428,417,481,381,265,192,209,201,295],"outcomes":[74,70,62,74,55,63,78,61,59,54],"screen_resolution":1,"trial_type":"horizons-trial","trial_index":219,"time_elapsed":1102357,"internal_node_id":"0.0-220.0"},{"horizon":5,"rewards_L":[63,72,63,64,56],"rewards_R":[55,59,65,73,52],"key_presses":["arrowleft","arrowright","arrowleft","arrowright","arrowright"],"response_times":[537,391,594,568,847],"outcomes":[63,59,63,73,52],"screen_resolution":1,"trial_type":"horizons-trial","trial_index":220,"time_elapsed":1107062,"internal_node_id":"0.0-221.0"},{"horizon":10,"rewards_L":[96,88,81,93,89,97,100,97,89,95],"rewards_R":[51,56,78,49,58,48,64,58,51,57],"key_presses":["arrowleft","arrowleft","arrowright","arrowleft","arrowleft","arrowleft","arrowleft","arrowleft","arrowleft","arrowleft"],"response_times":[386,389,481,262,368,1074,337,207,278,362],"outcomes":[96,88,78,93,89,97,100,97,89,95],"screen_resolution":1,"trial_type":"horizons-trial","trial_index":221,"time_elapsed":1118606,"internal_node_id":"0.0-222.0"},{"horizon":5,"rewards_L":[43,54,51,74,55],"rewards_R":[79,84,79,72,67],"key_presses":["arrowleft","arrowright","arrowleft","arrowleft","arrowleft"],"response_times":[722,519,673,366,577],"outcomes":[43,84,51,74,55],"screen_resolution":1,"trial_type":"horizons-trial","trial_index":222,"time_elapsed":1121966,"internal_node_id":"0.0-223.0"},{"horizon":5,"rewards_L":[48,65,70,64,47],"rewards_R":[66,59,61,63,63],"key_presses":["arrowright","arrowleft","arrowright","arrowleft","arrowleft"],"response_times":[543,392,400,384,615],"outcomes":[66,65,61,64,47],"screen_resolution":1,"trial_type":"horizons-trial","trial_index":223,"time_elapsed":1125520,"internal_node_id":"0.0-224.0"},{"horizon":10,"rewards_L":[62,59,51,52,56,69,75,59,61,73],"rewards_R":[62,65,58,51,80,65,54,62,53,60],"key_presses":["arrowleft","arrowright","arrowright","arrowleft","arrowleft","arrowleft","arrowleft","arrowleft","arrowleft","arrowleft"],"response_times":[420,496,496,396,571,579,429,186,208,214],"outcomes":[62,65,58,52,56,69,75,59,61,73],"screen_resolution":1,"trial_type":"horizons-trial","trial_index":224,"time_elapsed":1130023,"internal_node_id":"0.0-225.0"},{"horizon":10,"rewards_L":[34,42,57,58,40,43,47,39,56,41],"rewards_R":[59,56,67,56,49,43,52,50,52,53],"key_presses":["arrowright","arrowright","arrowleft","arrowleft","arrowright","arrowleft","arrowleft","arrowright","arrowright","arrowright"],"response_times":[578,440,291,9010,478,488,348,363,492,190],"outcomes":[59,56,57,58,49,43,47,50,52,53],"screen_resolution":1,"trial_type":"horizons-trial","trial_index":225,"time_elapsed":1143249,"internal_node_id":"0.0-226.0"},{"horizon":10,"rewards_L":[45,42,42,37,51,41,39,33,48,43],"rewards_R":[20,25,8,6,22,19,27,15,14,6],"key_presses":["arrowright","arrowleft","arrowleft","arrowright","arrowleft","arrowleft","arrowleft","arrowleft","arrowleft","arrowleft"],"response_times":[389,374,424,631,309,454,165,136,181,276],"outcomes":[20,42,42,6,51,41,39,33,48,43],"screen_resolution":1,"trial_type":"horizons-trial","trial_index":226,"time_elapsed":1147185,"internal_node_id":"0.0-227.0"},{"horizon":5,"rewards_L":[59,65,61,55,60],"rewards_R":[33,48,40,42,34],"key_presses":["arrowleft","arrowleft","arrowleft","arrowright","arrowleft"],"response_times":[356,365,361,425,515],"outcomes":[59,65,61,42,60],"screen_resolution":1,"trial_type":"horizons-trial","trial_index":227,"time_elapsed":1150510,"internal_node_id":"0.0-228.0"},{"horizon":10,"rewards_L":[49,38,55,52,47,40,47,44,52,57],"rewards_R":[58,66,59,38,68,64,66,56,52,55],"key_presses":["arrowright","arrowright","arrowright","arrowleft","arrowright","arrowright","arrowright","arrowright","arrowright","arrowright"],"response_times":[489,382,349,555,816,296,185,158,226,333],"outcomes":[58,66,59,52,68,64,66,56,52,55],"screen_resolution":1,"trial_type":"horizons-trial","trial_index":228,"time_elapsed":1155293,"internal_node_id":"0.0-229.0"},{"horizon":5,"rewards_L":[45,35,55,50,49],"rewards_R":[51,51,61,78,57],"key_presses":["arrowright","arrowleft","arrowleft","arrowright","arrowright"],"response_times":[318,468,463,338,518],"outcomes":[51,35,55,78,57],"screen_resolution":1,"trial_type":"horizons-trial","trial_index":229,"time_elapsed":1158492,"internal_node_id":"0.0-230.0"},{"horizon":10,"rewards_L":[50,27,50,37,43,55,38,49,27,55],"rewards_R":[61,72,74,79,75,90,64,73,66,64],"key_presses":["arrowleft","arrowright","arrowright","arrowleft","arrowright","arrowright","arrowright","arrowright","arrowright","arrowright"],"response_times":[576,618,383,762,376,299,386,266,304,289],"outcomes":[50,72,74,37,75,90,64,73,66,64],"screen_resolution":1,"trial_type":"horizons-trial","trial_index":230,"time_elapsed":1163254,"internal_node_id":"0.0-231.0"},{"horizon":5,"rewards_L":[61,53,53,61,66],"rewards_R":[99,92,98,87,87],"key_presses":["arrowright","arrowleft","arrowright","arrowleft","arrowright"],"response_times":[517,336,288,328,186],"outcomes":[99,53,98,61,87],"screen_resolution":1,"trial_type":"horizons-trial","trial_index":231,"time_elapsed":1165447,"internal_node_id":"0.0-232.0"},{"horizon":10,"rewards_L":[27,29,47,24,29,34,28,30,29,16],"rewards_R":[45,31,38,40,38,33,42,38,49,30],"key_presses":["arrowright","arrowright","arrowleft","arrowleft","arrowright","arrowright","arrowright","arrowright","arrowright","arrowright"],"response_times":[398,422,376,315,387,378,186,160,169,221],"outcomes":[45,31,47,24,38,33,42,38,49,30],"screen_resolution":1,"trial_type":"horizons-trial","trial_index":232,"time_elapsed":1169358,"internal_node_id":"0.0-233.0"},{"horizon":5,"rewards_L":[26,48,41,38,30],"rewards_R":[0,8,10,0,15],"key_presses":["arrowleft","arrowright","arrowright","arrowleft","arrowleft"],"response_times":[401,414,1068,181,366],"outcomes":[26,8,10,38,30],"screen_resolution":1,"trial_type":"horizons-trial","trial_index":233,"time_elapsed":1172817,"internal_node_id":"0.0-234.0"},{"horizon":5,"rewards_L":[40,39,26,28,31],"rewards_R":[69,69,63,62,67],"key_presses":["arrowleft","arrowright","arrowleft","arrowleft","arrowright"],"response_times":[390,348,211,878,844],"outcomes":[40,69,26,28,67],"screen_resolution":1,"trial_type":"horizons-trial","trial_index":234,"time_elapsed":1176445,"internal_node_id":"0.0-235.0"},{"horizon":10,"rewards_L":[63,63,65,56,59,43,64,50,51,63],"rewards_R":[49,50,54,39,50,58,46,45,41,61],"key_presses":["arrowright","arrowright","arrowleft","arrowleft","arrowleft","arrowleft","arrowleft","arrowleft","arrowleft","arrowleft"],"response_times":[4762,327,336,350,497,167,184,134,174,233],"outcomes":[49,50,65,56,59,43,64,50,51,63],"screen_resolution":1,"trial_type":"horizons-trial","trial_index":235,"time_elapsed":1184164,"internal_node_id":"0.0-236.0"},{"horizon":10,"rewards_L":[51,54,64,51,51,67,54,61,60,53],"rewards_R":[44,37,46,42,47,38,17,40,30,35],"key_presses":["arrowleft","arrowright","arrowright","arrowright","arrowleft","arrowleft","arrowleft","arrowleft","arrowleft","arrowleft"],"response_times":[1104,364,568,605,310,444,198,168,183,255],"outcomes":[51,37,46,42,51,67,54,61,60,53],"screen_resolution":1,"trial_type":"horizons-trial","trial_index":236,"time_elapsed":1189093,"internal_node_id":"0.0-237.0"},{"horizon":5,"rewards_L":[52,84,69,70,63],"rewards_R":[36,29,50,36,52],"key_presses":["arrowleft","arrowleft","arrowright","arrowleft","arrowleft"],"response_times":[344,355,336,286,328],"outcomes":[52,84,50,70,63],"screen_resolution":1,"trial_type":"horizons-trial","trial_index":237,"time_elapsed":1191672,"internal_node_id":"0.0-238.0"},{"horizon":10,"rewards_L":[84,70,89,71,75,75,92,88,64,74],"rewards_R":[56,36,61,47,61,55,47,75,71,75],"key_presses":["arrowright","arrowleft","arrowright","arrowright","arrowleft","arrowleft","arrowleft","arrowleft","arrowleft","arrowleft"],"response_times":[365,319,296,595,284,180,175,173,193,245],"outcomes":[56,70,61,47,75,75,92,88,64,74],"screen_resolution":1,"trial_type":"horizons-trial","trial_index":238,"time_elapsed":1195357,"internal_node_id":"0.0-239.0"},{"horizon":10,"rewards_L":[32,35,41,51,45,34,41,41,42,39],"rewards_R":[43,45,46,53,37,46,54,40,36,54],"key_presses":["arrowright","arrowright","arrowleft","arrowright","arrowleft","arrowright","arrowright","arrowright","arrowright","arrowright"],"response_times":[712,554,1031,520,426,351,315,252,191,227],"outcomes":[43,45,41,53,45,46,54,40,36,54],"screen_resolution":1,"trial_type":"horizons-trial","trial_index":239,"time_elapsed":1200643,"internal_node_id":"0.0-240.0"},{"horizon":5,"rewards_L":[56,45,46,64,64],"rewards_R":[50,34,45,60,28],"key_presses":["arrowleft","arrowleft","arrowright","arrowleft","arrowright"],"response_times":[491,458,350,519,372],"outcomes":[56,45,45,64,28],"screen_resolution":1,"trial_type":"horizons-trial","trial_index":240,"time_elapsed":1204174,"internal_node_id":"0.0-241.0"},{"horizon":5,"rewards_L":[53,47,58,62,71],"rewards_R":[58,58,61,55,48],"key_presses":["arrowleft","arrowright","arrowleft","arrowright","arrowright"],"response_times":[399,368,296,743,696],"outcomes":[53,58,58,55,48],"screen_resolution":1,"trial_type":"horizons-trial","trial_index":241,"time_elapsed":1207829,"internal_node_id":"0.0-242.0"},{"horizon":5,"rewards_L":[21,49,44,43,41],"rewards_R":[44,62,57,70,64],"key_presses":["arrowright","arrowleft","arrowright","arrowleft","arrowright"],"response_times":[383,346,296,286,360],"outcomes":[44,49,57,43,64],"screen_resolution":1,"trial_type":"horizons-trial","trial_index":242,"time_elapsed":1210707,"internal_node_id":"0.0-243.0"},{"horizon":5,"rewards_L":[74,75,80,75,68],"rewards_R":[55,57,66,63,54],"key_presses":["arrowright","arrowleft","arrowright","arrowright","arrowleft"],"response_times":[376,298,390,667,292],"outcomes":[55,75,66,63,68],"screen_resolution":1,"trial_type":"horizons-trial","trial_index":243,"time_elapsed":1213457,"internal_node_id":"0.0-244.0"},{"horizon":5,"rewards_L":[35,35,38,24,33],"rewards_R":[12,31,28,41,10],"key_presses":["arrowleft","arrowright","arrowright","arrowright","arrowleft"],"response_times":[338,344,569,428,313],"outcomes":[35,31,28,41,33],"screen_resolution":1,"trial_type":"horizons-trial","trial_index":244,"time_elapsed":1216213,"internal_node_id":"0.0-245.0"},{"horizon":5,"rewards_L":[60,59,64,61,52],"rewards_R":[28,23,34,26,46],"key_presses":["arrowleft","arrowleft","arrowleft","arrowright","arrowleft"],"response_times":[480,325,324,410,494],"outcomes":[60,59,64,26,52],"screen_resolution":1,"trial_type":"horizons-trial","trial_index":245,"time_elapsed":1218990,"internal_node_id":"0.0-246.0"},{"horizon":10,"rewards_L":[33,39,48,31,44,32,26,35,40,49],"rewards_R":[53,54,46,53,53,71,72,46,57,58],"key_presses":["arrowleft","arrowleft","arrowright","arrowright","arrowright","arrowright","arrowright","arrowright","arrowright","arrowright"],"response_times":[487,328,353,294,260,253,191,178,183,287],"outcomes":[33,39,46,53,53,71,72,46,57,58],"screen_resolution":1,"trial_type":"horizons-trial","trial_index":246,"time_elapsed":1222678,"internal_node_id":"0.0-247.0"},{"horizon":5,"rewards_L":[38,57,46,50,65],"rewards_R":[73,83,79,74,77],"key_presses":["arrowleft","arrowright","arrowright","arrowleft","arrowright"],"response_times":[368,326,559,456,218],"outcomes":[38,83,79,50,77],"screen_resolution":1,"trial_type":"horizons-trial","trial_index":247,"time_elapsed":122