[{"success":true,"timeout":false,"failed_images":[],"failed_audio":[],"failed_video":[],"trial_type":"preload","trial_index":0,"time_elapsed":21709,"internal_node_id":"0.0-0.0"},{"success":true,"trial_type":"fullscreen","trial_index":1,"time_elapsed":54648,"internal_node_id":"0.0-1.0"},{"rt":7123,"stimulus":"<p>你将开始实验 実験を開始します<b>Horizons task.</b></p><p>查看说明请按 “1” 键，跳过说明请按 “2” 键。説明を見るには “1” キーを押してください。スキップするには “2” キーを押してください。</p>","response":"2","trial_type":"html-keyboard-response","trial_index":2,"time_elapsed":61771,"internal_node_id":"0.0-2.0"},{"view_history":[{"page_index":0,"viewing_time":2588},{"page_index":1,"viewing_time":2406}],"rt":4994,"trial_type":"instructions","trial_index":3,"time_elapsed":66766,"internal_node_id":"0.0-4.0"},{"horizon":5,"rewards_L":[62,53,41,54,57],"rewards_R":[44,45,51,40,42],"key_presses":["arrowright","arrowright","arrowleft","arrowleft","arrowright"],"response_times":[98451,5380,1792,696,928],"outcomes":[44,45,41,54,42],"screen_resolution":1,"trial_type":"horizons-trial","trial_index":4,"time_elapsed":187126,"internal_node_id":"0.0-5.0"},{"horizon":5,"rewards_L":[20,39,38,42,30],"rewards_R":[52,41,43,48,48],"key_presses":["arrowright","arrowleft","arrowleft","arrowright","arrowright"],"response_times":[2031,408,488,424,680],"outcomes":[52,39,38,48,48],"screen_resolution":1,"trial_type":"horizons-trial","trial_index":5,"time_elapsed":195263,"internal_node_id":"0.0-6.0"},{"horizon":5,"rewards_L":[24,26,40,26,23],"rewards_R":[35,45,70,36,43],"key_presses":["arrowleft","arrowright","arrowright","arrowleft","arrowright"],"response_times":[4839,496,440,440,593],"outcomes":[24,45,70,26,43],"screen_resolution":1,"trial_type":"horizons-trial","trial_index":6,"time_elapsed":207919,"internal_node_id":"0.0-7.0"},{"horizon":10,"rewards_L":[23,39,46,36,28,44,44,32,38,30],"rewards_R":[39,51,55,37,37,31,32,39,36,49],"key_presses":["arrowright","arrowleft","arrowleft","arrowright","arrowright","arrowleft","arrowright","arrowleft","arrowright","arrowleft"],"response_times":[1175,384,416,400,584,0,584,0,696,0],"outcomes":[39,39,46,37,37,44,32,32,36,30],"screen_resolution":1,"trial_type":"horizons-trial","trial_index":7,"time_elapsed":252928,"internal_node_id":"0.0-8.0"},{"horizon":5,"rewards_L":[22,28,28,29,42],"rewards_R":[39,44,41,39,31],"key_presses":["arrowright","arrowright","arrowright","arrowleft","arrowright"],"response_times":[992,481,399,376,512],"outcomes":[39,44,41,29,31],"screen_resolution":1,"trial_type":"horizons-trial","trial_index":8,"time_elapsed":257568,"internal_node_id":"0.0-9.0"},{"horizon":10,"rewards_L":[63,65,53,63,70,55,79,83,67,71],"rewards_R":[70,53,58,62,69,70,60,67,71,55],"key_presses":["arrowright","arrowleft","arrowright","arrowleft","arrowright","arrowleft","arrowleft","arrowright","arrowright","arrowleft"],"response_times":[688,401,415,376,472,0,472,8,640,8],"outcomes":[70,65,58,63,69,55,79,67,71,71],"screen_resolution":1,"trial_type":"horizons-trial","trial_index":9,"time_elapsed":263569,"internal_node_id":"0.0-10.0"},{"horizon":10,"rewards_L":[56,60,54,54,42,53,43,51,46,36],"rewards_R":[54,40,44,28,28,48,32,39,42,39],"key_presses":["arrowright","arrowleft","arrowright","arrowright","arrowright","arrowleft","arrowright","arrowleft","arrowright","arrowleft"],"response_times":[671,440,376,408,472,0,496,0,544,0],"outcomes":[54,60,44,28,28,53,32,51,42,36],"screen_resolution":1,"trial_type":"horizons-trial","trial_index":10,"time_elapsed":269352,"internal_node_id":"0.0-11.0"},{"horizon":10,"rewards_L":[49,59,36,68,53,63,62,44,61,45],"rewards_R":[48,50,34,34,40,44,26,36,36,35],"key_presses":["arrowleft","arrowleft","arrowleft","arrowright","arrowright","arrowleft","arrowright","arrowleft","arrowright","arrowleft"],"response_times":[664,376,376,456,528,16,480,16,544,0],"outcomes":[49,59,36,34,40,63,26,44,36,45],"screen_resolution":1,"trial_type":"horizons-trial","trial_index":11,"time_elapsed":274153,"internal_node_id":"0.0-12.0"},{"horizon":10,"rewards_L":[49,28,40,37,55,60,39,44,34,37],"rewards_R":[39,42,48,34,41,42,40,51,54,41],"key_presses":["arrowright","arrowleft","arrowright","arrowright","arrowright","arrowleft","arrowright","arrowleft","arrowright","arrowleft"],"response_times":[967,392,448,376,464,0,504,0,544,0],"outcomes":[39,28,48,34,41,60,40,44,54,37],"screen_resolution":1,"trial_type":"horizons-trial","trial_index":12,"time_elapsed":304513,"internal_node_id":"0.0-13.0"},{"horizon":10,"rewards_L":[62,53,78,77,57,81,61,65,65,75],"rewards_R":[38,38,45,48,35,36,46,58,46,35],"key_presses":["arrowleft","arrowleft","arrowright","arrowright","arrowright","arrowleft","arrowright","arrowleft","arrowright","arrowleft"],"response_times":[967,424,448,440,464,0,424,0,616,0],"outcomes":[62,53,45,48,35,81,46,65,46,75],"screen_resolution":1,"trial_type":"horizons-trial","trial_index":13,"time_elapsed":309673,"internal_node_id":"0.0-14.0"},{"horizon":5,"rewards_L":[63,64,84,70,59],"rewards_R":[43,55,37,51,43],"key_presses":["arrowright","arrowleft","arrowleft","arrowright","arrowright"],"response_times":[43449,401,343,360,376],"outcomes":[43,64,84,51,43],"screen_resolution":1,"trial_type":"horizons-trial","trial_index":14,"time_elapsed":355530,"internal_node_id":"0.0-15.0"},{"horizon":10,"rewards_L":[38,42,41,27,35,36,38,38,40,46],"rewards_R":[38,47,40,62,56,47,50,39,45,44],"key_presses":["arrowleft","arrowright","arrowleft","arrowleft","arrowright","arrowleft","arrowright","arrowleft","arrowright","arrowleft"],"response_times":[608,320,321,328,383,16,408,0,512,0],"outcomes":[38,47,41,27,56,36,50,38,45,46],"screen_resolution":1,"trial_type":"horizons-trial","trial_index":15,"time_elapsed":359130,"internal_node_id":"0.0-16.0"},{"horizon":10,"rewards_L":[35,48,42,50,35,26,37,28,13,33],"rewards_R":[35,51,51,49,52,34,44,31,49,53],"key_presses":["arrowleft","arrowright","arrowright","arrowleft","arrowleft","arrowright","arrowright","arrowleft","arrowright","arrowleft"],"response_times":[432,392,352,352,488,8,416,0,457,0],"outcomes":[35,51,51,50,35,34,44,28,49,33],"screen_resolution":1,"trial_type":"horizons-trial","trial_index":16,"time_elapsed":362611,"internal_node_id":"0.0-17.0"},{"horizon":10,"rewards_L":[53,37,41,45,28,35,16,38,46,25],"rewards_R":[50,63,47,62,59,55,62,54,62,56],"key_presses":["arrowright","arrowleft","arrowleft","arrowleft","arrowright","arrowright","arrowleft","arrowright","arrowleft","arrowright"],"response_times":[392,328,328,296,377,423,0,480,0,488],"outcomes":[50,37,41,45,59,55,16,54,46,56],"screen_resolution":1,"trial_type":"horizons-trial","trial_index":17,"time_elapsed":366315,"internal_node_id":"0.0-18.0"},{"horizon":10,"rewards_L":[58,21,36,25,36,32,36,46,49,31],"rewards_R":[40,46,51,47,34,34,57,54,36,54],"key_presses":["arrowleft","arrowright","arrowleft","arrowright","arrowleft","arrowright","arrowleft","arrowright","arrowleft","arrowright"],"response_times":[455,368,224,56,112,71,88,80,88,40],"outcomes":[58,46,36,47,36,34,36,54,49,54],"screen_resolution":1,"trial_type":"horizons-trial","trial_index":18,"time_elapsed":368411,"internal_node_id":"0.0-19.0"},{"horizon":10,"rewards_L":[56,53,60,65,55,67,59,74,41,49],"rewards_R":[67,63,72,51,54,75,67,57,63,60],"key_presses":["arrowright","arrowright","arrowright","arrowleft","arrowright","arrowleft","arrowright","arrowleft","arrowright","arrowleft"],"response_times":[104,256,152,183,80,72,32,96,24,80],"outcomes":[67,63,72,65,54,67,67,74,63,49],"screen_resolution":1,"trial_type":"horizons-trial","trial_index":19,"time_elapsed":370107,"internal_node_id":"0.0-20.0"},{"horizon":10,"rewards_L":[42,64,65,49,41,45,49,49,44,49],"rewards_R":[37,51,30,45,36,34,44,43,39,32],"key_presses":["arrowleft","arrowleft","arrowright","arrowright","arrowleft","arrowright","arrowleft","arrowright","arrowleft","arrowright"],"response_times":[128,143,32,136,88,48,97,39,80,49],"outcomes":[42,64,30,45,41,34,49,43,44,32],"screen_resolution":1,"trial_type":"horizons-trial","trial_index":20,"time_elapsed":371451,"internal_node_id":"0.0-21.0"},{"horizon":10,"rewards_L":[63,73,62,54,65,62,70,60,66,75],"rewards_R":[33,37,25,18,27,42,28,20,41,40],"key_presses":["arrowleft","arrowleft","arrowleft","arrowright","arrowleft","arrowright","arrowleft","arrowright","arrowleft","arrowright"],"response_times":[111,136,152,40,112,32,88,40,96,40],"outcomes":[63,73,62,18,65,42,70,20,66,40],"screen_resolution":1,"trial_type":"horizons-trial","trial_index":21,"time_elapsed":372891,"internal_node_id":"0.0-22.0"},{"horizon":10,"rewards_L":[46,40,36,42,35,30,39,48,53,58],"rewards_R":[38,49,41,44,46,46,51,47,28,22],"key_presses":["arrowright","arrowleft","arrowright","arrowleft","arrowright","arrowleft","arrowright","arrowleft","arrowright","arrowleft"],"response_times":[112,0,119,0,120,0,112,8,104,8],"outcomes":[38,40,41,42,46,30,51,48,28,58],"screen_resolution":1,"trial_type":"horizons-trial","trial_index":22,"time_elapsed":373995,"internal_node_id":"0.0-23.0"},{"horizon":5,"rewards_L":[27,40,39,33,48],"rewards_R":[55,52,64,53,69],"key_presses":["arrowright","arrowright","arrowright","arrowleft","arrowright"],"response_times":[120,96,88,7,72],"outcomes":[55,52,64,33,69],"screen_resolution":1,"trial_type":"horizons-trial","trial_index":23,"time_elapsed":374947,"internal_node_id":"0.0-24.0"},{"horizon":10,"rewards_L":[55,64,52,56,56,68,47,60,61,67],"rewards_R":[74,66,74,76,67,73,73,77,73,72],"key_presses":["arrowright","arrowright","arrowleft","arrowright","arrowleft","arrowright","arrowleft","arrowright","arrowleft","arrowleft"],"response_times":[103,104,0,104,0,80,8,104,0,80],"outcomes":[74,66,52,76,56,73,47,77,61,67],"screen_resolution":1,"trial_type":"horizons-trial","trial_index":24,"time_elapsed":376091,"internal_node_id":"0.0-25.0"},{"horizon":5,"rewards_L":[21,22,13,26,15],"rewards_R":[46,42,32,29,46],"key_presses":["arrowright","arrowright","arrowright","arrowleft","arrowright"],"response_times":[87,96,120,8,120],"outcomes":[46,42,32,26,46],"screen_resolution":1,"trial_type":"horizons-trial","trial_index":25,"time_elapsed":377059,"internal_node_id":"0.0-26.0"},{"horizon":10,"rewards_L":[51,57,43,50,39,53,51,56,36,46],"rewards_R":[43,39,36,37,32,34,53,37,42,58],"key_presses":["arrowleft","arrowleft","arrowright","arrowleft","arrowright","arrowleft","arrowright","arrowleft","arrowright","arrowleft"],"response_times":[135,112,96,0,96,16,104,24,104,16],"outcomes":[51,57,36,50,32,53,53,56,42,46],"screen_resolution":1,"trial_type":"horizons-trial","trial_index":26,"time_elapsed":378379,"internal_node_id":"0.0-27.0"},{"horizon":5,"rewards_L":[50,46,44,44,25],"rewards_R":[50,53,56,58,72],"key_presses":["arrowright","arrowright","arrowleft","arrowleft","arrowright"],"response_times":[112,216,112,144,48],"outcomes":[50,53,44,44,72],"screen_resolution":1,"trial_type":"horizons-trial","trial_index":27,"time_elapsed":379572,"internal_node_id":"0.0-28.0"},{"horizon":5,"rewards_L":[36,33,48,55,46],"rewards_R":[15,2,15,6,23],"key_presses":["arrowright","arrowleft","arrowleft","arrowright","arrowleft"],"response_times":[143,72,143,40,88],"outcomes":[15,33,48,6,46],"screen_resolution":1,"trial_type":"horizons-trial","trial_index":28,"time_elapsed":380627,"internal_node_id":"0.0-29.0"},{"horizon":10,"rewards_L":[11,24,31,25,13,19,22,43,7,26],"rewards_R":[41,40,59,33,40,38,59,34,32,52],"key_presses":["arrowleft","arrowright","arrowright","arrowleft","arrowright","arrowleft","arrowright","arrowleft","arrowright","arrowleft"],"response_times":[87,88,176,81,88,88,81,72,80,72],"outcomes":[11,40,59,25,40,19,59,43,32,26],"screen_resolution":1,"trial_type":"horizons-trial","trial_index":29,"time_elapsed":382067,"internal_node_id":"0.0-30.0"},{"horizon":10,"rewards_L":[39,18,24,33,38,17,24,46,39,43],"rewards_R":[35,44,43,49,27,46,44,45,36,40],"key_presses":["arrowright","arrowright","arrowright","arrowleft","arrowright","arrowleft","arrowright","arrowleft","arrowright","arrowleft"],"response_times":[144,177,176,119,56,120,48,136,48,96],"outcomes":[35,44,43,33,27,17,44,46,36,43],"screen_resolution":1,"trial_type":"horizons-trial","trial_index":30,"time_elapsed":383715,"internal_node_id":"0.0-31.0"},{"horizon":5,"rewards_L":[64,63,55,43,54],"rewards_R":[49,56,55,62,67],"key_presses":["arrowright","arrowright","arrowleft","arrowleft","arrowright"],"response_times":[87,200,127,192,47],"outcomes":[49,56,55,43,67],"screen_resolution":1,"trial_type":"horizons-trial","trial_index":31,"time_elapsed":384875,"internal_node_id":"0.0-32.0"},{"horizon":10,"rewards_L":[30,36,39,39,36,43,50,36,34,33],"rewards_R":[46,36,48,31,29,39,27,43,29,32],"key_presses":["arrowleft","arrowright","arrowright","arrowleft","arrowright","arrowleft","arrowright","arrowleft","arrowright","arrowleft"],"response_times":[79,64,136,88,64,88,72,72,72,72],"outcomes":[30,36,48,39,29,43,27,36,29,33],"screen_resolution":1,"trial_type":"horizons-trial","trial_index":32,"time_elapsed":386243,"internal_node_id":"0.0-33.0"},{"horizon":5,"rewards_L":[43,42,38,31,39],"rewards_R":[12,28,20,18,9],"key_presses":["arrowleft","arrowright","arrowleft","arrowright","arrowleft"],"response_times":[112,72,104,72,96],"outcomes":[43,28,38,18,39],"screen_resolution":1,"trial_type":"horizons-trial","trial_index":33,"time_elapsed":387307,"internal_node_id":"0.0-34.0"},{"horizon":5,"rewards_L":[37,37,48,44,61],"rewards_R":[31,35,28,34,36],"key_presses":["arrowright","arrowleft","arrowleft","arrowright","arrowleft"],"response_times":[24,104,152,80,96],"outcomes":[31,37,48,34,61],"screen_resolution":1,"trial_type":"horizons-trial","trial_index":34,"time_elapsed":388323,"internal_node_id":"0.0-35.0"},{"horizon":10,"rewards_L":[45,55,47,43,38,36,28,38,44,34],"rewards_R":[66,64,60,38,74,76,60,66,48,57],"key_presses":["arrowright","arrowright","arrowright","arrowleft","arrowright","arrowleft","arrowright","arrowleft","arrowright","arrowleft"],"response_times":[56,176,200,104,64,112,72,96,96,105],"outcomes":[66,64,60,43,74,36,60,38,48,34],"screen_resolution":1,"trial_type":"horizons-trial","trial_index":35,"time_elapsed":389995,"internal_node_id":"0.0-36.0"},{"horizon":10,"rewards_L":[27,39,43,32,20,43,32,44,35,32],"rewards_R":[10,9,9,12,0,4,1,2,17,9],"key_presses":["arrowright","arrowleft","arrowright","arrowleft","arrowright","arrowleft","arrowright","arrowleft","arrowright","arrowleft"],"response_times":[87,120,80,120,56,112,56,104,24,88],"outcomes":[10,39,9,32,0,43,1,44,17,32],"screen_resolution":1,"trial_type":"horizons-trial","trial_index":36,"time_elapsed":391403,"internal_node_id":"0.0-37.0"},{"horizon":10,"rewards_L":[40,34,45,43,49,53,38,50,32,42],"rewards_R":[28,36,33,42,24,36,43,9,23,30],"key_presses":["arrowright","arrowleft","arrowright","arrowleft","arrowright","arrowleft","arrowright","arrowleft","arrowright","arrowleft"],"response_times":[128,8,96,24,112,8,120,0,112,8],"outcomes":[28,34,33,43,24,53,43,50,23,42],"screen_resolution":1,"trial_type":"horizons-trial","trial_index":37,"time_elapsed":392532,"internal_node_id":"0.0-38.0"},{"horizon":10,"rewards_L":[39,46,41,36,35,37,41,30,49,39],"rewards_R":[51,44,40,32,37,37,44,53,34,51],"key_presses":["arrowright","arrowleft","arrowleft","arrowleft","arrowright","arrowleft","arrowright","arrowleft","arrowright","arrowleft"],"response_times":[111,16,136,128,137,0,143,8,128,24],"outcomes":[51,46,41,36,37,37,44,30,34,39],"screen_resolution":1,"trial_type":"horizons-trial","trial_index":38,"time_elapsed":393907,"internal_node_id":"0.0-39.0"},{"horizon":10,"rewards_L":[37,33,44,41,58,49,39,45,50,34],"rewards_R":[25,34,37,40,38,40,36,49,34,36],"key_presses":["arrowleft","arrowright","arrowright","arrowright","arrowleft","arrowright","arrowleft","arrowright","arrowleft","arrowright"],"response_times":[0,144,136,120,0,136,0,144,8,136],"outcomes":[37,34,37,40,58,40,39,49,50,36],"screen_resolution":1,"trial_type":"horizons-trial","trial_index":39,"time_elapsed":395332,"internal_node_id":"0.0-40.0"},{"horizon":5,"rewards_L":[79,80,86,90,87],"rewards_R":[52,75,55,61,59],"key_presses":["arrowleft","arrowright","arrowleft","arrowright","arrowleft"],"response_times":[15,120,16,136,9],"outcomes":[79,75,86,61,87],"screen_resolution":1,"trial_type":"horizons-trial","trial_index":40,"time_elapsed":396227,"internal_node_id":"0.0-41.0"},{"horizon":10,"rewards_L":[46,45,40,44,44,33,38,34,51,34],"rewards_R":[48,56,52,58,61,49,59,59,42,49],"key_presses":["arrowright","arrowleft","arrowright","arrowleft","arrowright","arrowleft","arrowright","arrowleft","arrowright","arrowleft"],"response_times":[143,24,111,16,136,0,144,9,144,7],"outcomes":[48,45,52,44,61,33,59,34,42,34],"screen_resolution":1,"trial_type":"horizons-trial","trial_index":41,"time_elapsed":397556,"internal_node_id":"0.0-42.0"},{"horizon":10,"rewards_L":[70,85,84,83,69,79,91,77,83,93],"rewards_R":[54,73,61,58,63,60,66,57,56,66],"key_presses":["arrowleft","arrowright","arrowright","arrowleft","arrowright","arrowleft","arrowright","arrowleft","arrowright","arrowleft"],"response_times":[0,143,144,0,153,0,135,8,120,17],"outcomes":[70,73,61,83,63,79,66,77,56,93],"screen_resolution":1,"trial_type":"horizons-trial","trial_index":42,"time_elapsed":398860,"internal_node_id":"0.0-43.0"},{"horizon":5,"rewards_L":[57,60,61,80,48],"rewards_R":[57,65,57,75,60],"key_presses":["arrowleft","arrowright","arrowright","arrowleft","arrowright"],"response_times":[0,143,137,128,152],"outcomes":[57,65,57,80,60],"screen_resolution":1,"trial_type":"horizons-trial","trial_index":43,"time_elapsed":399939,"internal_node_id":"0.0-44.0"},{"horizon":5,"rewards_L":[40,34,32,41,45],"rewards_R":[35,40,40,43,36],"key_presses":["arrowleft","arrowleft","arrowright","arrowleft","arrowright"],"response_times":[16,112,111,24,952],"outcomes":[40,34,40,41,36],"screen_resolution":1,"trial_type":"horizons-trial","trial_index":44,"time_elapsed":1299603,"internal_node_id":"0.0-45.0"},{"horizon":5,"rewards_L":[56,55,52,35,47],"rewards_R":[27,36,24,36,48],"key_presses":["arrowright","arrowleft","arrowright","arrowleft","arrowright"],"response_times":[40,120,80,128,80],"outcomes":[27,55,24,35,48],"screen_resolution":1,"trial_type":"horizons-trial","trial_index":45,"time_elapsed":1324796,"internal_node_id":"0.0-46.0"},{"horizon":10,"rewards_L":[66,54,63,64,61,51,65,50,63,63],"rewards_R":[79,69,74,86,71,86,67,72,77,73],"key_presses":["arrowright","arrowright","arrowleft","arrowright","arrowright","arrowleft","arrowright","arrowleft","arrowright","arrowleft"],"response_times":[255,121,408,8,80,16,463,56,96,56],"outcomes":[79,69,63,86,71,51,67,50,77,63],"screen_resolution":1,"trial_type":"horizons-trial","trial_index":46,"time_elapsed":1327420,"internal_node_id":"0.0-47.0"},{"horizon":5,"rewards_L":[29,35,28,52,30],"rewards_R":[70,64,62,52,73],"key_presses":["arrowright","arrowleft","arrowleft","arrowleft","arrowright"],"response_times":[1063,193,159,176,72],"outcomes":[70,35,28,52,73],"screen_resolution":1,"trial_type":"horizons-trial","trial_index":47,"time_elapsed":1329628,"internal_node_id":"0.0-48.0"},{"horizon":10,"rewards_L":[34,40,33,19,24,30,27,28,32,35],"rewards_R":[43,44,36,38,52,53,45,39,31,26],"key_presses":["arrowright","arrowleft","arrowright","arrowleft","arrowright","arrowleft","arrowright","arrowleft","arrowright","arrowleft"],"response_times":[183,120,64,104,73,103,81,112,65,119],"outcomes":[43,40,36,19,52,30,45,28,31,35],"screen_resolution":1,"trial_type":"horizons-trial","trial_index":48,"time_elapsed":1331228,"internal_node_id":"0.0-49.0"},{"horizon":10,"rewards_L":[42,34,40,44,55,49,54,31,56,55],"rewards_R":[36,52,42,43,42,51,32,36,41,30],"key_presses":["arrowleft","arrowright","arrowleft","arrowright","arrowleft","arrowright","arrowleft","arrowright","arrowleft","arrowright"],"response_times":[200,64,127,72,128,56,136,48,152,48],"outcomes":[42,52,40,43,55,51,54,36,56,30],"screen_resolution":1,"trial_type":"horizons-trial","trial_index":49,"time_elapsed":1332780,"internal_node_id":"0.0-50.0"},{"horizon":10,"rewards_L":[35,50,48,46,48,53,54,33,50,45],"rewards_R":[44,44,47,49,55,40,34,32,29,42],"key_presses":["arrowright","arrowright","arrowleft","arrowleft","arrowright","arrowleft","arrowright","arrowleft","arrowright","arrowleft"],"response_times":[63,193,160,184,32,144,48,136,48,128],"outcomes":[44,44,48,46,55,53,34,33,29,45],"screen_resolution":1,"trial_type":"horizons-trial","trial_index":50,"time_elapsed":1334508,"internal_node_id":"0.0-51.0"},{"horizon":5,"rewards_L":[82,90,83,76,91],"rewards_R":[68,56,52,68,65],"key_presses":["arrowright","arrowleft","arrowleft","arrowright","arrowleft"],"response_times":[23,160,200,32,144],"outcomes":[68,90,83,68,91],"screen_resolution":1,"trial_type":"horizons-trial","trial_index":51,"time_elapsed":1335620,"internal_node_id":"0.0-52.0"},{"horizon":5,"rewards_L":[71,68,63,45,48],"rewards_R":[59,45,72,69,55],"key_presses":["arrowright","arrowright","arrowleft","arrowleft","arrowright"],"response_times":[64,217,111,208,64],"outcomes":[59,45,63,45,55],"screen_resolution":1,"trial_type":"horizons-trial","trial_index":52,"time_elapsed":1336804,"internal_node_id":"0.0-53.0"},{"horizon":5,"rewards_L":[49,46,32,36,29],"rewards_R":[75,71,59,84,60],"key_presses":["arrowleft","arrowright","arrowleft","arrowright","arrowleft"],"response_times":[208,64,144,72,128],"outcomes":[49,71,32,84,29],"screen_resolution":1,"trial_type":"horizons-trial","trial_index":53,"time_elapsed":1338028,"internal_node_id":"0.0-54.0"},{"horizon":5,"rewards_L":[59,67,67,60,50],"rewards_R":[36,61,39,30,45],"key_presses":["arrowleft","arrowright","arrowright","arrowright","arrowleft"],"response_times":[176,79,192,192,160],"outcomes":[59,61,39,30,50],"screen_resolution":1,"trial_type":"horizons-trial","trial_index":54,"time_elapsed":1339452,"internal_node_id":"0.0-55.0"},{"horizon":10,"rewards_L":[75,67,63,55,51,62,41,55,52,57],"rewards_R":[37,38,48,26,37,12,54,46,31,26],"key_presses":["arrowleft","arrowright","arrowleft","arrowright","arrowleft","arrowright","arrowleft","arrowright","arrowleft","arrowright"],"response_times":[191,80,136,80,152,72,128,64,144,56],"outcomes":[75,38,63,26,51,12,41,46,52,26],"screen_resolution":1,"trial_type":"horizons-trial","trial_index":55,"time_elapsed":1341164,"internal_node_id":"0.0-56.0"},{"horizon":10,"rewards_L":[22,7,18,20,20,23,17,18,16,14],"rewards_R":[29,47,37,34,57,37,20,28,23,48],"key_presses":["arrowright","arrowleft","arrowleft","arrowleft","arrowright","arrowleft","arrowright","arrowleft","arrowright","arrowleft"],"response_times":[88,128,216,248,72,160,72,168,72,168],"outcomes":[29,7,18,20,57,23,20,18,23,14],"screen_resolution":1,"trial_type":"horizons-trial","trial_index":56,"time_elapsed":1343092,"internal_node_id":"0.0-57.0"},{"horizon":5,"rewards_L":[63,55,55,51,54],"rewards_R":[51,45,39,43,54],"key_presses":["arrowleft","arrowright","arrowright","arrowright","arrowleft"],"response_times":[128,112,223,224,128],"outcomes":[63,45,39,43,54],"screen_resolution":1,"trial_type":"horizons-trial","trial_index":57,"time_elapsed":1344444,"internal_node_id":"0.0-58.0"},{"horizon":10,"rewards_L":[29,30,22,31,32,39,29,32,33,29],"rewards_R":[49,38,25,41,36,38,41,46,36,43],"key_presses":["arrowleft","arrowright","arrowleft","arrowright","arrowleft","arrowright","arrowleft","arrowright","arrowleft","arrowright"],"response_times":[119,152,104,128,104,144,80,127,72,128],"outcomes":[29,38,22,41,32,38,29,46,33,43],"screen_resolution":1,"trial_type":"horizons-trial","trial_index":58,"time_elapsed":1346188,"internal_node_id":"0.0-59.0"},{"horizon":10,"rewards_L":[63,73,71,75,56,58,69,74,61,53],"rewards_R":[52,56,57,51,60,66,59,54,65,61],"key_presses":["arrowright","arrowleft","arrowright","arrowright","arrowleft","arrowright","arrowleft","arrowright","arrowleft","arrowright"],"response_times":[119,145,112,224,88,104,128,97,135,96],"outcomes":[52,73,57,51,56,66,69,54,61,61],"screen_resolution":1,"trial_type":"horizons-trial","trial_index":59,"time_elapsed":1348012,"internal_node_id":"0.0-60.0"},{"horizon":10,"rewards_L":[49,29,40,24,48,49,43,48,30,45],"rewards_R":[24,21,49,29,38,32,38,27,23,15],"key_presses":["arrowleft","arrowleft","arrowright","arrowright","arrowleft","arrowright","arrowleft","arrowright","arrowleft","arrowright"],"response_times":[231,240,64,256,136,120,112,104,168,80],"outcomes":[49,29,49,29,48,32,43,27,30,15],"screen_resolution":1,"trial_type":"horizons-trial","trial_index":60,"time_elapsed":1350156,"internal_node_id":"0.0-61.0"},{"horizon":5,"rewards_L":[54,37,49,54,48],"rewards_R":[65,72,50,50,60],"key_presses":["arrowright","arrowright","arrowright","arrowleft","arrowright"],"response_times":[95,248,257,112,135],"outcomes":[65,72,50,54,60],"screen_resolution":1,"trial_type":"horizons-trial","trial_index":61,"time_elapsed":1351580,"internal_node_id":"0.0-62.0"},{"horizon":10,"rewards_L":[36,32,37,28,20,30,10,30,31,10],"rewards_R":[50,45,47,24,45,47,37,49,34,37],"key_presses":["arrowright","arrowleft","arrowleft","arrowleft","arrowleft","arrowright","arrowleft","arrowright","arrowleft","arrowright"],"response_times":[200,96,256,144,208,48,160,64,160,40],"outcomes":[50,32,37,28,20,47,10,49,31,37],"screen_resolution":1,"trial_type":"horizons-trial","trial_index":62,"time_elapsed":1353580,"internal_node_id":"0.0-63.0"},{"horizon":10,"rewards_L":[35,23,28,25,21,35,20,12,24,31],"rewards_R":[37,30,17,53,45,38,47,39,36,19],"key_presses":["arrowleft","arrowleft","arrowright","arrowright","arrowleft","arrowleft","arrowright","arrowleft","arrowright","arrowleft"],"response_times":[223,224,80,335,0,200,72,176,88,104],"outcomes":[35,23,17,53,21,35,47,12,36,31],"screen_resolution":1,"trial_type":"horizons-trial","trial_index":63,"time_elapsed":1361045,"internal_node_id":"0.0-64.0"},{"horizon":5,"rewards_L":[23,20,23,21,34],"rewards_R":[32,47,47,45,43],"key_presses":["arrowright","arrowleft","arrowright","arrowleft","arrowleft"],"response_times":[64,152,56,161,160],"outcomes":[32,20,47,21,34],"screen_resolution":1,"trial_type":"horizons-trial","trial_index":64,"time_elapsed":1362213,"internal_node_id":"0.0-65.0"},{"horizon":5,"rewards_L":[57,67,54,69,57],"rewards_R":[63,60,52,50,60],"key_presses":["arrowleft","arrowleft","arrowright","arrowleft","arrowright"],"response_times":[191,233,95,112,79],"outcomes":[57,67,52,69,60],"screen_resolution":1,"trial_type":"horizons-trial","trial_index":65,"time_elapsed":1363469,"internal_node_id":"0.0-66.0"},{"horizon":5,"rewards_L":[50,41,41,59,57],"rewards_R":[50,50,29,46,37],"key_presses":["arrowleft","arrowright","arrowleft","arrowright","arrowleft"],"response_times":[213,34,129,79,120],"outcomes":[50,50,41,46,57],"screen_resolution":1,"trial_type":"horizons-trial","trial_index":66,"time_elapsed":1364556,"internal_node_id":"0.0-67.0"},{"horizon":10,"rewards_L":[59,59,56,61,59,59,65,48,48,42],"rewards_R":[41,41,51,48,45,49,31,41,41,46],"key_presses":["arrowleft","arrowleft","arrowright","arrowleft","arrowright","arrowleft","arrowleft","arrowright","arrowleft","arrowright"],"response_times":[128,179221,72,96,160,95,120,24,72,33],"outcomes":[59,59,51,61,45,59,65,41,48,46],"screen_resolution":1,"trial_type":"horizons-trial","trial_index":67,"time_elapsed":1545161,"internal_node_id":"0.0-68.0"},{"horizon":10,"rewards_L":[42,45,28,19,20,33,39,16,42,16],"rewards_R":[41,40,43,39,37,51,36,36,39,36],"key_presses":["arrowright","arrowright","arrowright","arrowleft","arrowright","arrowleft","arrowright","arrowleft","arrowright","arrowleft"],"response_times":[31,136,120,79,48,88,24,120,32,56],"outcomes":[41,40,43,19,37,33,36,16,39,16],"screen_resolution":1,"trial_type":"horizons-trial","trial_index":68,"time_elapsed":1546450,"internal_node_id":"0.0-69.0"},{"horizon":10,"rewards_L":[67,65,57,73,60,57,62,58,48,63],"rewards_R":[61,51,49,48,47,47,54,58,53,49],"key_presses":["arrowleft","arrowright","arrowright","arrowright","arrowleft","arrowleft","arrowright","arrowleft","arrowright","arrowleft"],"response_times":[127,56,120,128,87,128,32,105,32,96],"outcomes":[67,51,49,48,60,57,54,58,53,63],"screen_resolution":1,"trial_type":"horizons-trial","trial_index":69,"time_elapsed":1547890,"internal_node_id":"0.0-70.0"},{"horizon":10,"rewards_L":[65,70,66,58,74,67,71,57,55,60],"rewards_R":[58,61,51,63,60,50,38,65,68,65],"key_presses":["arrowleft","arrowleft","arrowleft","arrowright","arrowleft","arrowright","arrowleft","arrowright","arrowleft","arrowright"],"response_times":[143,128,136,47,72,48,96,32,96,48],"outcomes":[65,70,66,63,74,50,71,65,55,65],"screen_resolution":1,"trial_type":"horizons-trial","trial_index":70,"time_elapsed":1549362,"internal_node_id":"0.0-71.0"},{"horizon":10,"rewards_L":[68,57,70,69,43,46,62,67,70,50],"rewards_R":[41,55,66,52,59,55,52,54,56,47],"key_presses":["arrowleft","arrowright","arrowleft","arrowright","arrowleft","arrowright","arrowleft","arrowright","arrowleft","arrowright"],"response_times":[151,16,152,88,80,80,80,80,73,88],"outcomes":[68,55,70,52,43,55,62,54,70,47],"screen_resolution":1,"trial_type":"horizons-trial","trial_index":71,"time_elapsed":1550778,"internal_node_id":"0.0-72.0"},{"horizon":10,"rewards_L":[45,49,49,38,41,51,40,41,54,51],"rewards_R":[66,56,53,62,64,47,62,58,70,59],"key_presses":["arrowright","arrowleft","arrowleft","arrowleft","arrowright","arrowleft","arrowright","arrowleft","arrowright","arrowleft"],"response_times":[135,88,144,152,40,128,112,72,96,80],"outcomes":[66,49,49,38,64,51,62,41,70,51],"screen_resolution":1,"trial_type":"horizons-trial","trial_index":72,"time_elapsed":1552418,"internal_node_id":"0.0-73.0"},{"horizon":5,"rewards_L":[21,32,54,25,32],"rewards_R":[59,60,81,59,60],"key_presses":["arrowright","arrowright","arrowright","arrowleft","arrowright"],"response_times":[183,168,185,80,88],"outcomes":[59,60,81,25,60],"screen_resolution":1,"trial_type":"horizons-trial","trial_index":73,"time_elapsed":1553649,"internal_node_id":"0.0-74.0"},{"horizon":5,"rewards_L":[23,24,38,20,26],"rewards_R":[67,43,61,52,50],"key_presses":["arrowleft","arrowright","arrowleft","arrowright","arrowleft"],"response_times":[176,96,80,95,80],"outcomes":[23,43,38,52,26],"screen_resolution":1,"trial_type":"horizons-trial","trial_index":74,"time_elapsed":1554738,"internal_node_id":"0.0-75.0"},{"horizon":5,"rewards_L":[51,56,61,63,62],"rewards_R":[41,48,56,42,44],"key_presses":["arrowleft","arrowright","arrowright","arrowleft","arrowright"],"response_times":[184,88,176,72,96],"outcomes":[51,48,56,63,44],"screen_resolution":1,"trial_type":"horizons-trial","trial_index":75,"time_elapsed":1555890,"internal_node_id":"0.0-76.0"},{"horizon":5,"rewards_L":[52,52,65,66,51],"rewards_R":[84,70,60,74,82],"key_presses":["arrowleft","arrowright","arrowleft","arrowright","arrowleft"],"response_times":[87,96,120,88,128],"outcomes":[52,70,65,74,51],"screen_resolution":1,"trial_type":"horizons-trial","trial_index":76,"time_elapsed":1557002,"internal_node_id":"0.0-77.0"},{"horizon":5,"rewards_L":[37,30,36,47,43],"rewards_R":[37,38,35,34,25],"key_presses":["arrowleft","arrowright","arrowright","arrowright","arrowleft"],"response_times":[55,80,208,184,96],"outcomes":[37,38,35,34,43],"screen_resolution":1,"trial_type":"horizons-trial","trial_index":77,"time_elapsed":1558234,"internal_node_id":"0.0-78.0"},{"horizon":10,"rewards_L":[46,47,42,50,47,39,37,48,39,45],"rewards_R":[40,57,34,39,32,28,36,28,26,33],"key_presses":["arrowleft","arrowleft","arrowleft","arrowright","arrowleft","arrowright","arrowleft","arrowright","arrowleft","arrowright"],"response_times":[167,184,136,72,72,64,88,120,119,88],"outcomes":[46,47,42,39,47,28,37,28,39,33],"screen_resolution":1,"trial_type":"horizons-trial","trial_index":78,"time_elapsed":1559938,"internal_node_id":"0.0-79.0"},{"horizon":5,"rewards_L":[58,39,47,42,43],"rewards_R":[53,42,50,41,60],"key_presses":["arrowright","arrowleft","arrowright","arrowright","arrowleft"],"response_times":[206,144,80,224,120],"outcomes":[53,39,50,41,43],"screen_resolution":1,"trial_type":"horizons-trial","trial_index":79,"time_elapsed":1561378,"internal_node_id":"0.0-80.0"},{"horizon":5,"rewards_L":[33,59,47,30,31],"rewards_R":[25,38,55,18,43],"key_presses":["arrowleft","arrowleft","arrowright","arrowright","arrowleft"],"response_times":[0,111,56,240,72],"outcomes":[33,59,55,18,31],"screen_resolution":1,"trial_type":"horizons-trial","trial_index":80,"time_elapsed":1562442,"internal_node_id":"0.0-81.0"},{"horizon":10,"rewards_L":[27,19,21,32,37,18,19,45,36,34],"rewards_R":[58,55,70,80,59,64,45,60,77,66],"key_presses":["arrowright","arrowleft","arrowleft","arrowright","arrowleft","arrowright","arrowleft","arrowright","arrowleft","arrowright"],"response_times":[88,103,192,80,104,80,104,80,88,73],"outcomes":[58,19,21,80,37,64,19,60,36,66],"screen_resolution":1,"trial_type":"horizons-trial","trial_index":81,"time_elapsed":1563938,"internal_node_id":"0.0-82.0"},{"horizon":5,"rewards_L":[56,49,67,80,57],"rewards_R":[57,53,65,61,48],"key_presses":["arrowleft","arrowleft","arrowleft","arrowright","arrowleft"],"response_times":[255,168,265,88,113],"outcomes":[56,49,67,61,57],"screen_resolution":1,"trial_type":"horizons-trial","trial_index":82,"time_elapsed":1565450,"internal_node_id":"0.0-83.0"},{"horizon":5,"rewards_L":[44,31,36,46,50],"rewards_R":[39,25,21,34,40],"key_presses":["arrowright","arrowright","arrowleft","arrowleft","arrowright"],"response_times":[80,208,96,176,104],"outcomes":[39,25,36,46,40],"screen_resolution":1,"trial_type":"horizons-trial","trial_index":83,"time_elapsed":1566690,"internal_node_id":"0.0-84.0"},{"horizon":5,"rewards_L":[52,34,25,41,41],"rewards_R":[17,19,22,24,27],"key_presses":["arrowleft","arrowleft","arrowleft","arrowright","arrowleft"],"response_times":[104,216,152,80,96],"outcomes":[52,34,25,24,41],"screen_resolution":1,"trial_type":"horizons-trial","trial_index":84,"time_elapsed":1567850,"internal_node_id":"0.0-85.0"},{"horizon":5,"rewards_L":[42,48,33,43,48],"rewards_R":[31,18,30,29,26],"key_presses":["arrowleft","arrowright","arrowright","arrowright","arrowleft"],"response_times":[119,96,192,192,184],"outcomes":[42,18,30,29,48],"screen_resolution":1,"trial_type":"horizons-trial","trial_index":85,"time_elapsed":1569170,"internal_node_id":"0.0-86.0"},{"horizon":5,"rewards_L":[54,40,49,44,36],"rewards_R":[33,45,36,45,51],"key_presses":["arrowright","arrowleft","arrowright","arrowleft","arrowright"],"response_times":[248,160,80,128,80],"outcomes":[33,40,36,44,51],"screen_resolution":1,"trial_type":"horizons-trial","trial_index":86,"time_elapsed":1570434,"internal_node_id":"0.0-87.0"},{"horizon":10,"rewards_L":[36,39,35,40,47,30,39,30,41,40],"rewards_R":[86,68,65,80,66,81,54,67,85,82],"key_presses":["arrowright","arrowleft","arrowleft","arrowright","arrowleft","arrowright","arrowleft","arrowright","arrowleft","arrowright"],"response_times":[95,112,239,128,161,96,87,104,56,56],"outcomes":[86,39,35,80,47,81,39,67,41,82],"screen_resolution":1,"trial_type":"horizons-trial","trial_index":87,"time_elapsed":1572114,"internal_node_id":"0.0-88.0"},{"horizon":5,"rewards_L":[75,54,64,62,62],"rewards_R":[64,74,80,70,66],"key_presses":["arrowleft","arrowleft","arrowright","arrowright","arrowleft"],"response_times":[71,256,48,240,112],"outcomes":[75,54,80,70,62],"screen_resolution":1,"trial_type":"horizons-trial","trial_index":88,"time_elapsed":1573451,"internal_node_id":"0.0-89.0"},{"horizon":10,"rewards_L":[31,36,29,38,38,39,31,39,46,40],"rewards_R":[3,28,0,13,19,15,21,3,18,0],"key_presses":["arrowleft","arrowright","arrowright","arrowright","arrowleft","arrowright","arrowleft","arrowright","arrowleft","arrowright"],"response_times":[247,88,208,217,143,112,97,88,96,80],"outcomes":[31,28,0,13,38,15,31,3,46,0],"screen_resolution":1,"trial_type":"horizons-trial","trial_index":89,"time_elapsed":1575346,"internal_node_id":"0.0-90.0"},{"horizon":5,"rewards_L":[54,64,62,65,70],"rewards_R":[35,51,50,47,53],"key_presses":["arrowleft","arrowleft","arrowleft","arrowright","arrowleft"],"response_times":[24,152,144,88,56],"outcomes":[54,64,62,47,70],"screen_resolution":1,"trial_type":"horizons-trial","trial_index":90,"time_elapsed":1576370,"internal_node_id":"0.0-91.0"},{"horizon":5,"rewards_L":[64,60,59,56,44],"rewards_R":[76,82,71,88,70],"key_presses":["arrowright","arrowleft","arrowleft","arrowright","arrowright"],"response_times":[120,48,160,40,112],"outcomes":[76,60,59,88,70],"screen_resolution":1,"trial_type":"horizons-trial","trial_index":91,"time_elapsed":1577458,"internal_node_id":"0.0-92.0"},{"horizon":10,"rewards_L":[49,42,43,36,41,41,30,32,19,32],"rewards_R":[26,23,14,23,11,19,26,29,29,6],"key_presses":["arrowleft","arrowleft","arrowleft","arrowright","arrowleft","arrowright","arrowleft","arrowright","arrowleft","arrowright"],"response_times":[23,152,152,105,48,103,64,96,64,40],"outcomes":[49,42,43,23,41,19,30,29,19,6],"screen_resolution":1,"trial_type":"horizons-trial","trial_index":92,"time_elapsed":1578890,"internal_node_id":"0.0-93.0"},{"horizon":5,"rewards_L":[45,52,50,56,70],"rewards_R":[48,31,29,40,24],"key_presses":["arrowleft","arrowleft","arrowright","arrowright","arrowleft"],"response_times":[7,169,119,160,41],"outcomes":[45,52,29,40,70],"screen_resolution":1,"trial_type":"horizons-trial","trial_index":93,"time_elapsed":1580002,"internal_node_id":"0.0-94.0"},{"horizon":10,"rewards_L":[43,55,68,59,37,56,54,55,54,51],"rewards_R":[57,60,51,61,63,51,53,51,51,62],"key_presses":["arrowleft","arrowright","arrowright","arrowleft","arrowright","arrowleft","arrowright","arrowleft","arrowright","arrowleft"],"response_times":[47,112,160,32,129,32,120,32,112,48],"outcomes":[43,60,51,59,63,56,53,55,51,51],"screen_resolution":1,"trial_type":"horizons-trial","trial_index":94,"time_elapsed":1581370,"internal_node_id":"0.0-95.0"},{"horizon":5,"rewards_L":[67,69,80,66,79],"rewards_R":[58,55,56,57,59],"key_presses":["arrowright","arrowleft","arrowright","arrowleft","arrowright"],"response_times":[152,112,32,136,24],"outcomes":[58,69,56,66,59],"screen_resolution":1,"trial_type":"horizons-trial","trial_index":95,"time_elapsed":1582483,"internal_node_id":"0.0-96.0"},{"horizon":5,"rewards_L":[60,58,82,73,67],"rewards_R":[26,42,39,32,24],"key_presses":["arrowleft","arrowright","arrowright","arrowright","arrowleft"],"response_times":[7,152,152,152,23],"outcomes":[60,42,39,32,67],"screen_resolution":1,"trial_type":"horizons-trial","trial_index":96,"time_elapsed":1583570,"internal_node_id":"0.0-97.0"},{"horizon":10,"rewards_L":[34,22,35,41,31,28,24,39,31,44],"rewards_R":[37,72,68,55,59,65,68,62,69,56],"key_presses":["arrowright","arrowright","arrowright","arrowleft","arrowright","arrowleft","arrowright","arrowleft","arrowright","arrowleft"],"response_times":[151,152,336,96,40,120,32,128,24,128],"outcomes":[37,72,68,41,59,28,68,39,69,44],"screen_resolution":1,"trial_type":"horizons-trial","trial_index":97,"time_elapsed":1585411,"internal_node_id":"0.0-98.0"},{"horizon":10,"rewards_L":[48,52,58,55,56,54,77,57,54,60],"rewards_R":[82,81,68,81,85,75,65,66,78,90],"key_presses":["arrowright","arrowleft","arrowleft","arrowright","arrowleft","arrowright","arrowleft","arrowright","arrowright","arrowleft"],"response_times":[151,40,176,72,105,47,136,16,160,16],"outcomes":[82,52,58,81,56,75,77,66,78,60],"screen_resolution":1,"trial_type":"horizons-trial","trial_index":98,"time_elapsed":1586866,"internal_node_id":"0.0-99.0"},{"horizon":5,"rewards_L":[64,52,64,69,58],"rewards_R":[42,42,24,55,44],"key_presses":["arrowright","arrowright","arrowleft","arrowleft","arrowright"],"response_times":[96,136,120,184,160],"outcomes":[42,42,64,69,44],"screen_resolution":1,"trial_type":"horizons-trial","trial_index":99,"time_elapsed":1588138,"internal_node_id":"0.0-100.0"},{"horizon":10,"rewards_L":[61,53,48,62,47,53,56,52,57,52],"rewards_R":[33,39,34,30,35,38,40,40,48,38],"key_presses":["arrowright","arrowleft","arrowright","arrowright","arrowleft","arrowright","arrowleft","arrowright","arrowleft","arrowright"],"response_times":[143,40,128,176,32,120,80,80,103,48],"outcomes":[33,53,34,30,47,38,56,40,57,38],"screen_resolution":1,"trial_type":"horizons-trial","trial_index":100,"time_elapsed":1589714,"internal_node_id":"0.0-101.0"},{"horizon":10,"rewards_L":[66,65,57,64,56,61,63,52,67,76],"rewards_R":[74,70,82,78,68,77,68,64,78,89],"key_presses":["arrowleft","arrowright","arrowright","arrowleft","arrowright","arrowleft","arrowright","arrowleft","arrowright","arrowright"],"response_times":[24,144,168,48,128,64,56,136,8,152],"outcomes":[66,70,82,64,68,61,68,52,78,89],"screen_resolution":1,"trial_type":"horizons-trial","trial_index":101,"time_elapsed":1591226,"internal_node_id":"0.0-102.0"},{"horizon":10,"rewards_L":[58,59,57,50,54,54,61,62,46,74],"rewards_R":[66,80,86,97,84,70,80,71,79,89],"key_presses":["arrowleft","arrowright","arrowleft","arrowleft","arrowright","arrowleft","arrowright","arrowleft","arrowright","arrowleft"],"response_times":[192,7,184,168,104,80,80,104,56,128],"outcomes":[58,80,57,50,84,54,80,62,79,74],"screen_resolution":1,"trial_type":"horizons-trial","trial_index":102,"time_elapsed":1592859,"internal_node_id":"0.0-103.0"},{"horizon":5,"rewards_L":[100,81,79,84,91],"rewards_R":[64,53,72,52,51],"key_presses":["arrowleft","arrowright","arrowright","arrowleft","arrowright"],"response_times":[191,88,160,112,56],"outcomes":[100,53,72,84,51],"screen_resolution":1,"trial_type":"horizons-trial","trial_index":103,"time_elapsed":1593971,"internal_node_id":"0.0-104.0"},{"horizon":10,"rewards_L":[100,100,84,91,98,81,87,80,90,97],"rewards_R":[68,61,74,60,54,68,64,70,67,65],"key_presses":["arrowright","arrowleft","arrowright","arrowright","arrowleft","arrowright","arrowleft","arrowright","arrowright","arrowleft"],"response_times":[167,24,120,152,112,48,136,8,160,25],"outcomes":[68,100,74,60,98,68,87,70,67,97],"screen_resolution":1,"trial_type":"horizons-trial","trial_index":104,"time_elapsed":1595459,"internal_node_id":"0.0-105.0"},{"horizon":10,"rewards_L":[39,46,41,35,45,35,33,42,47,42],"rewards_R":[29,27,18,30,34,34,26,22,40,18],"key_presses":["arrowright","arrowright","arrowleft","arrowleft","arrowright","arrowright","arrowleft","arrowright","arrowleft","arrowright"],"response_times":[79,176,81,168,23,160,0,160,24,136],"outcomes":[29,27,41,35,34,34,33,22,47,18],"screen_resolution":1,"trial_type":"horizons-trial","trial_index":105,"time_elapsed":1597043,"internal_node_id":"0.0-106.0"},{"horizon":5,"rewards_L":[31,50,32,40,40],"rewards_R":[68,64,55,70,63],"key_presses":["arrowright","arrowright","arrowleft","arrowright","arrowleft"],"response_times":[177,159,8,160,24],"outcomes":[68,64,32,70,40],"screen_resolution":1,"trial_type":"horizons-trial","trial_index":106,"time_elapsed":1598075,"internal_node_id":"0.0-107.0"},{"horizon":5,"rewards_L":[79,87,63,74,83],"rewards_R":[63,70,52,61,59],"key_presses":["arrowleft","arrowleft","arrowright","arrowleft","arrowright"],"response_times":[167,192,64,152,128],"outcomes":[79,87,52,74,59],"screen_resolution":1,"trial_type":"horizons-trial","trial_index":107,"time_elapsed":1599315,"internal_node_id":"0.0-108.0"},{"horizon":10,"rewards_L":[62,62,62,71,62,57,55,55,76,66],"rewards_R":[52,62,59,56,38,59,63,48,49,55],"key_presses":["arrowright","arrowleft","arrowright","arrowleft","arrowright","arrowleft","arrowright","arrowright","arrowleft","arrowright"],"response_times":[63,120,24,152,136,48,103,160,80,80],"outcomes":[52,62,59,71,38,57,63,48,76,55],"screen_resolution":1,"trial_type":"horizons-trial","trial_index":108,"time_elapsed":1600867,"internal_node_id":"0.0-109.0"},{"horizon":5,"rewards_L":[21,33,44,28,39],"rewards_R":[46,35,36,34,50],"key_presses":["arrowleft","arrowright","arrowleft","arrowright","arrowleft"],"response_times":[47,144,40,136,48],"outcomes":[21,35,44,34,39],"screen_resolution":1,"trial_type":"horizons-trial","trial_index":109,"time_elapsed":1601859,"internal_node_id":"0.0-110.0"},{"horizon":10,"rewards_L":[37,30,46,36,41,34,39,35,50,40],"rewards_R":[58,59,50,49,70,45,60,51,59,65],"key_presses":["arrowleft","arrowright","arrowleft","arrowleft","arrowright","arrowright","arrowleft","arrowright","arrowleft","arrowright"],"response_times":[192,72,112,185,16,159,0,168,24,144],"outcomes":[37,59,46,36,70,45,39,51,50,65],"screen_resolution":1,"trial_type":"horizons-trial","trial_index":110,"time_elapsed":1603451,"internal_node_id":"0.0-111.0"},{"horizon":5,"rewards_L":[55,45,45,38,44],"rewards_R":[60,69,59,51,61],"key_presses":["arrowleft","arrowright","arrowright","arrowleft","arrowright"],"response_times":[72,104,185,104,64],"outcomes":[55,69,59,38,61],"screen_resolution":1,"trial_type":"horizons-trial","trial_index":111,"time_elapsed":1604627,"internal_node_id":"0.0-112.0"},{"horizon":5,"rewards_L":[47,46,53,55,37],"rewards_R":[54,50,50,55,56],"key_presses":["arrowright","arrowright","arrowright","arrowleft","arrowright"],"response_times":[152,160,152,57,95],"outcomes":[54,50,50,55,56],"screen_resolution":1,"trial_type":"horizons-trial","trial_index":112,"time_elapsed":1605851,"internal_node_id":"0.0-113.0"},{"horizon":5,"rewards_L":[33,38,44,27,31],"rewards_R":[62,47,49,47,58],"key_presses":["arrowright","arrowleft","arrowleft","arrowleft","arrowright"],"response_times":[16,152,168,168,144],"outcomes":[62,38,44,27,58],"screen_resolution":1,"trial_type":"horizons-trial","trial_index":113,"time_elapsed":1607051,"internal_node_id":"0.0-114.0"},{"horizon":10,"rewards_L":[51,52,52,60,59,58,59,69,49,64],"rewards_R":[43,41,47,36,52,44,36,45,43,40],"key_presses":["arrowright","arrowright","arrowleft","arrowleft","arrowright","arrowleft","arrowright","arrowleft","arrowright","arrowleft"],"response_times":[87,136,128,192,152,17,135,48,96,88],"outcomes":[43,41,52,60,52,58,36,69,43,64],"screen_resolution":1,"trial_type":"horizons-trial","trial_index":114,"time_elapsed":1608635,"internal_node_id":"0.0-115.0"},{"horizon":5,"rewards_L":[52,53,56,52,58],"rewards_R":[77,75,75,66,75],"key_presses":["arrowleft","arrowright","arrowleft","arrowleft","arrowright"],"response_times":[40,112,64,185,127],"outcomes":[52,75,56,52,75],"screen_resolution":1,"trial_type":"horizons-trial","trial_index":115,"time_elapsed":1609667,"internal_node_id":"0.0-116.0"},{"horizon":10,"rewards_L":[80,78,87,66,88,86,82,82,83,86],"rewards_R":[56,55,55,54,53,65,64,62,63,53],"key_presses":["arrowleft","arrowleft","arrowright","arrowleft","arrowright","arrowright","arrowleft","arrowright","arrowleft","arrowright"],"response_times":[31,161,72,112,32,105,71,64,120,8],"outcomes":[80,78,55,66,53,65,82,62,83,53],"screen_resolution":1,"trial_type":"horizons-trial","trial_index":116,"time_elapsed":1610971,"internal_node_id":"0.0-117.0"},{"horizon":10,"rewards_L":[28,46,27,51,43,45,33,44,41,47],"rewards_R":[32,20,20,38,24,29,30,27,18,25],"key_presses":["arrowleft","arrowright","arrowleft","arrowright","arrowleft","arrowright","arrowright","arrowleft","arrowright","arrowleft"],"response_times":[8,144,32,87,80,57,119,8,128,56],"outcomes":[28,20,27,38,43,29,30,44,18,47],"screen_resolution":1,"trial_type":"horizons-trial","trial_index":117,"time_elapsed":1612243,"internal_node_id":"0.0-118.0"},{"horizon":10,"rewards_L":[70,44,57,48,41,57,65,71,55,43],"rewards_R":[54,56,66,61,53,54,65,56,58,61],"key_presses":["arrowleft","arrowleft","arrowright","arrowright","arrowright","arrowleft","arrowright","arrowleft","arrowright","arrowleft"],"response_times":[0,184,104,136,129,31,136,16,129,55],"outcomes":[70,44,66,61,53,57,65,71,58,43],"screen_resolution":1,"trial_type":"horizons-trial","trial_index":118,"time_elapsed":1613691,"internal_node_id":"0.0-119.0"},{"horizon":10,"rewards_L":[61,57,64,67,45,62,55,61,59,61],"rewards_R":[35,34,33,34,29,36,22,24,25,20],"key_presses":["arrowright","arrowleft","arrowleft","arrowright","arrowleft","arrowright","arrowright","arrowleft","arrowright","arrowleft"],"response_times":[176,88,207,48,135,32,128,64,64,129],"outcomes":[35,57,64,34,45,36,22,61,25,61],"screen_resolution":1,"trial_type":"horizons-trial","trial_index":119,"time_elapsed":1615300,"internal_node_id":"0.0-120.0"},{"horizon":10,"rewards_L":[32,37,24,40,50,41,35,39,49,33],"rewards_R":[65,64,44,68,70,58,62,63,69,49],"key_presses":["arrowleft","arrowright","arrowleft","arrowright","arrowleft","arrowright","arrowleft","arrowright","arrowright","arrowleft"],"response_times":[128,48,112,136,80,65,151,8,169,16],"outcomes":[32,64,24,68,50,58,35,63,69,33],"screen_resolution":1,"trial_type":"horizons-trial","trial_index":120,"time_elapsed":1616788,"internal_node_id":"0.0-121.0"},{"horizon":10,"rewards_L":[50,40,43,31,39,58,33,42,36,39],"rewards_R":[41,58,37,49,39,30,36,40,38,40],"key_presses":["arrowleft","arrowright","arrowleft","arrowleft","arrowleft","arrowleft","arrowright","arrowright","arrowleft","arrowright"],"response_times":[198,8,176,176,184,192,17,160,24,152],"outcomes":[50,58,43,31,39,58,36,40,36,40],"screen_resolution":1,"trial_type":"horizons-trial","trial_index":121,"time_elapsed":1618579,"internal_node_id":"0.0-122.0"},{"horizon":5,"rewards_L":[34,52,42,47,41],"rewards_R":[49,58,41,39,53],"key_presses":["arrowleft","arrowleft","arrowright","arrowright","arrowleft"],"response_times":[39,184,88,120,152],"outcomes":[34,52,41,39,41],"screen_resolution":1,"trial_type":"horizons-trial","trial_index":122,"time_elapsed":1619763,"internal_node_id":"0.0-123.0"},{"horizon":5,"rewards_L":[71,82,78,71,50],"rewards_R":[37,50,42,47,33],"key_presses":["arrowright","arrowright","arrowleft","arrowleft","arrowright"],"response_times":[40,127,128,184,8],"outcomes":[37,50,78,71,33],"screen_resolution":1,"trial_type":"horizons-trial","trial_index":123,"time_elapsed":1620779,"internal_node_id":"0.0-124.0"},{"horizon":5,"rewards_L":[24,17,44,39,36],"rewards_R":[16,3,5,24,7],"key_presses":["arrowleft","arrowleft","arrowleft","arrowright","arrowright"],"response_times":[7,176,176,224,120],"outcomes":[24,17,44,24,7],"screen_resolution":1,"trial_type":"horizons-trial","trial_index":124,"time_elapsed":1622051,"internal_node_id":"0.0-125.0"},{"horizon":5,"rewards_L":[38,31,39,36,51],"rewards_R":[0,5,19,1,0],"key_presses":["arrowleft","arrowright","arrowright","arrowright","arrowleft"],"response_times":[744,56,168,192,0],"outcomes":[38,5,19,1,51],"screen_resolution":1,"trial_type":"horizons-trial","trial_index":125,"time_elapsed":1623780,"internal_node_id":"0.0-126.0"},{"horizon":10,"rewards_L":[33,35,37,24,64,42,43,36,39,37],"rewards_R":[31,28,39,33,50,25,36,30,43,35],"key_presses":["arrowright","arrowright","arrowright","arrowleft","arrowright","arrowleft","arrowright","arrowleft","arrowright","arrowleft"],"response_times":[71,176,160,128,56,103,72,112,63,1496],"outcomes":[31,28,39,24,50,42,36,36,43,37],"screen_resolution":1,"trial_type":"horizons-trial","trial_index":126,"time_elapsed":1626803,"internal_node_id":"0.0-127.0"},{"horizon":10,"rewards_L":[40,40,46,47,42,31,27,50,35,38],"rewards_R":[56,57,58,55,71,55,51,49,66,67],"key_presses":["arrowleft","arrowleft","arrowright","arrowright","arrowleft","arrowright","arrowleft","arrowright","arrowleft","arrowright"],"response_times":[168,168,47,193,111,64,120,64,112,64],"outcomes":[40,40,58,55,42,55,27,49,35,67],"screen_resolution":1,"trial_type":"horizons-trial","trial_index":127,"time_elapsed":1632403,"internal_node_id":"0.0-128.0"},{"horizon":10,"rewards_L":[10,12,12,7,3,17,8,12,12,14],"rewards_R":[31,45,32,32,41,36,33,32,41,38],"key_presses":["arrowright","arrowright","arrowright","arrowleft","arrowright","arrowleft","arrowright","arrowleft","arrowright","arrowleft"],"response_times":[48,200,184,136,32,144,16,169,16,152],"outcomes":[31,45,32,7,41,17,33,12,41,14],"screen_resolution":1,"trial_type":"horizons-trial","trial_index":128,"time_elapsed":1634036,"internal_node_id":"0.0-129.0"},{"horizon":5,"rewards_L":[23,29,30,27,41],"rewards_R":[40,44,55,39,41],"key_presses":["arrowright","arrowright","arrowright","arrowleft","arrowright"],"response_times":[39,168,168,136,33],"outcomes":[40,44,55,27,41],"screen_resolution":1,"trial_type":"horizons-trial","trial_index":129,"time_elapsed":1635092,"internal_node_id":"0.0-130.0"},{"horizon":10,"rewards_L":[68,56,65,54,52,62,66,54,59,53],"rewards_R":[35,36,39,64,55,45,28,43,47,34],"key_presses":["arrowleft","arrowleft","arrowright","arrowleft","arrowright","arrowleft","arrowright","arrowleft","arrowright","arrowleft"],"response_times":[160,200,48,143,40,152,57,144,40,151],"outcomes":[68,56,39,54,55,62,28,54,47,53],"screen_resolution":1,"trial_type":"horizons-trial","trial_index":130,"time_elapsed":1636756,"internal_node_id":"0.0-131.0"},{"horizon":10,"rewards_L":[54,72,61,38,61,52,55,65,71,55],"rewards_R":[82,86,83,88,81,94,83,84,96,95],"key_presses":["arrowleft","arrowright","arrowleft","arrowleft","arrowright","arrowleft","arrowright","arrowleft","arrowright","arrowleft"],"response_times":[80,96,72,200,95,112,80,112,88,128],"outcomes":[54,86,61,38,81,52,83,65,96,55],"screen_resolution":1,"trial_type":"horizons-trial","trial_index":131,"time_elapsed":1638389,"internal_node_id":"0.0-132.0"},{"horizon":10,"rewards_L":[61,49,34,31,39,31,34,39,44,39],"rewards_R":[18,21,28,20,14,23,23,20,17,14],"key_presses":["arrowleft","arrowright","arrowright","arrowleft","arrowright","arrowleft","arrowright","arrowleft","arrowright","arrowleft"],"response_times":[207,56,208,136,48,152,40,152,40,144],"outcomes":[61,21,28,31,14,31,23,39,17,39],"screen_resolution":1,"trial_type":"horizons-trial","trial_index":132,"time_elapsed":1640180,"internal_node_id":"0.0-133.0"},{"horizon":10,"rewards_L":[53,59,47,61,67,60,53,64,60,66],"rewards_R":[46,32,39,40,27,22,23,39,40,42],"key_presses":["arrowleft","arrowright","arrowright","arrowright","arrowleft","arrowright","arrowleft","arrowright","arrowleft","arrowright"],"response_times":[192,49,208,216,136,56,168,56,136,57],"outcomes":[53,32,39,40,67,22,53,39,60,42],"screen_resolution":1,"trial_type":"horizons-trial","trial_index":133,"time_elapsed":1642037,"internal_node_id":"0.0-134.0"},{"horizon":10,"rewards_L":[44,61,47,62,54,56,53,55,36,51],"rewards_R":[53,54,57,53,67,62,60,59,69,63],"key_presses":["arrowright","arrowleft","arrowleft","arrowleft","arrowright","arrowleft","arrowright","arrowleft","arrowright","arrowleft"],"response_times":[71,128,200,216,120,96,145,87,137,64],"outcomes":[53,61,47,62,67,56,60,55,69,51],"screen_resolution":1,"trial_type":"horizons-trial","trial_index":134,"time_elapsed":1643828,"internal_node_id":"0.0-135.0"},{"horizon":10,"rewards_L":[28,33,36,36,27,51,37,33,22,43],"rewards_R":[34,29,30,27,35,33,41,23,30,44],"key_presses":["arrowleft","arrowright","arrowright","arrowright","arrowleft","arrowright","arrowleft","arrowright","arrowleft","arrowright"],"response_times":[95,88,2104,200,144,64,145,48,168,32],"outcomes":[28,29,30,27,27,33,37,23,22,44],"screen_resolution":1,"trial_type":"horizons-trial","trial_index":135,"time_elapsed":1647452,"internal_node_id":"0.0-136.0"},{"horizon":10,"rewards_L":[0,9,0,3,6,22,13,11,4,18],"rewards_R":[41,41,44,40,44,51,38,25,30,43],"key_presses":["arrowright","arrowright","arrowleft","arrowleft","arrowright","arrowleft","arrowright","arrowleft","arrowright","arrowleft"],"response_times":[71,241,128,224,112,112,161,63,112,88],"outcomes":[41,41,0,3,44,22,38,11,30,18],"screen_resolution":1,"trial_type":"horizons-trial","trial_index":136,"time_elapsed":1649380,"internal_node_id":"0.0-137.0"},{"horizon":5,"rewards_L":[89,77,82,70,83],"rewards_R":[61,53,56,66,69],"key_presses":["arrowleft","arrowleft","arrowright","arrowleft","arrowright"],"response_times":[128,208,80,120,80],"outcomes":[89,77,56,70,69],"screen_resolution":1,"trial_type":"horizons-trial","trial_index":137,"time_elapsed":1650624,"internal_node_id":"0.0-138.0"},{"horizon":5,"rewards_L":[61,47,63,68,63],"rewards_R":[64,75,66,67,62],"key_presses":["arrowright","arrowright","arrowleft","arrowright","arrowleft"],"response_times":[92,280,88,112,120],"outcomes":[64,75,63,67,63],"screen_resolution":1,"trial_type":"horizons-trial","trial_index":138,"time_elapsed":1651820,"internal_node_id":"0.0-139.0"},{"horizon":5,"rewards_L":[43,32,44,25,26],"rewards_R":[35,53,38,55,35],"key_presses":["arrowright","arrowleft","arrowleft","arrowleft","arrowright"],"response_times":[120,88,192,169,112],"outcomes":[35,32,44,25,35],"screen_resolution":1,"trial_type":"horizons-trial","trial_index":139,"time_elapsed":1653093,"internal_node_id":"0.0-140.0"},{"horizon":5,"rewards_L":[81,58,74,58,71],"rewards_R":[63,71,65,68,52],"key_presses":["arrowright","arrowleft","arrowright","arrowright","arrowleft"],"response_times":[95,121,151,328,57],"outcomes":[63,58,65,68,71],"screen_resolution":1,"trial_type":"horizons-trial","trial_index":140,"time_elapsed":1654421,"internal_node_id":"0.0-141.0"},{"horizon":10,"rewards_L":[63,46,70,65,61,61,56,67,52,54],"rewards_R":[68,80,75,81,72,65,57,57,53,70],"key_presses":["arrowleft","arrowright","arrowleft","arrowright","arrowleft","arrowright","arrowleft","arrowright","arrowleft","arrowright"],"response_times":[191,80,152,159,48,176,80,152,56,152],"outcomes":[63,80,70,81,61,65,56,57,52,70],"screen_resolution":1,"trial_type":"horizons-trial","trial_index":141,"time_elapsed":1656228,"internal_node_id":"0.0-142.0"},{"horizon":5,"rewards_L":[48,37,58,51,44],"rewards_R":[55,50,59,65,49],"key_presses":["arrowright","arrowright","arrowleft","arrowright","arrowright"],"response_times":[280,200,80,136,80],"outcomes":[55,50,58,65,49],"screen_resolution":1,"trial_type":"horizons-trial","trial_index":142,"time_elapsed":1657588,"internal_node_id":"0.0-143.0"},{"horizon":5,"rewards_L":[60,59,59,58,51],"rewards_R":[39,34,52,38,28],"key_presses":["arrowright","arrowleft","arrowright","arrowright","arrowleft"],"response_times":[72,128,56,216,144],"outcomes":[39,59,52,38,51],"screen_resolution":1,"trial_type":"horizons-trial","trial_index":143,"time_elapsed":1658836,"internal_node_id":"0.0-144.0"},{"horizon":5,"rewards_L":[27,35,38,47,41],"rewards_R":[35,34,47,26,42],"key_presses":["arrowright","arrowleft","arrowleft","arrowleft","arrowright"],"response_times":[199,48,200,127,160],"outcomes":[35,35,38,47,42],"screen_resolution":1,"trial_type":"horizons-trial","trial_index":144,"time_elapsed":1660180,"internal_node_id":"0.0-145.0"},{"horizon":10,"rewards_L":[42,54,57,43,50,50,57,42,44,42],"rewards_R":[48,48,39,46,29,56,52,33,40,37],"key_presses":["arrowright","arrowleft","arrowleft","arrowright","arrowright","arrowleft","arrowright","arrowleft","arrowleft","arrowright"],"response_times":[192,24,184,184,88,104,168,16,160,8],"outcomes":[48,54,57,46,29,50,52,42,44,37],"screen_resolution":1,"trial_type":"horizons-trial","trial_index":145,"time_elapsed":1661820,"internal_node_id":"0.0-146.0"},{"horizon":10,"rewards_L":[57,53,51,62,62,51,60,66,53,64],"rewards_R":[74,72,81,61,77,63,83,63,83,87],"key_presses":["arrowleft","arrowright","arrowleft","arrowleft","arrowright","arrowright","arrowleft","arrowright","arrowleft","arrowright"],"response_times":[144,144,8,144,8,145,0,143,0,120],"outcomes":[57,72,51,62,77,63,60,63,53,87],"screen_resolution":1,"trial_type":"horizons-trial","trial_index":146,"time_elapsed":1663182,"internal_node_id":"0.0-147.0"},{"horizon":10,"rewards_L":[69,62,49,58,53,66,46,55,58,56],"rewards_R":[65,53,51,61,57,56,66,43,64,64],"key_presses":["arrowright","arrowleft","arrowleft","arrowleft","arrowright","arrowleft","arrowright","arrowright","arrowleft","arrowright"],"response_times":[654,0,168,112,48,88,24,112,16,96],"outcomes":[65,62,49,58,57,66,66,43,58,64],"screen_resolution":1,"trial_type":"horizons-trial","trial_index":147,"time_elapsed":1665053,"internal_node_id":"0.0-148.0"},{"horizon":5,"rewards_L":[16,38,19,29,39],"rewards_R":[51,33,49,40,34],"key_presses":["arrowright","arrowleft","arrowleft","arrowleft","arrowright"],"response_times":[39,96,128,104,64],"outcomes":[51,38,19,29,34],"screen_resolution":1,"trial_type":"horizons-trial","trial_index":148,"time_elapsed":1666005,"internal_node_id":"0.0-149.0"},{"horizon":5,"rewards_L":[46,43,49,48,41],"rewards_R":[50,44,51,53,67],"key_presses":["arrowleft","arrowright","arrowleft","arrowleft","arrowright"],"response_times":[128,24,112,112,72],"outcomes":[46,44,49,48,67],"screen_resolution":1,"trial_type":"horizons-trial","trial_index":149,"time_elapsed":1666965,"internal_node_id":"0.0-150.0"},{"horizon":5,"rewards_L":[76,59,68,70,71],"rewards_R":[62,80,72,55,78],"key_presses":["arrowleft","arrowright","arrowleft","arrowleft","arrowright"],"response_times":[16,88,24,144,56],"outcomes":[76,80,68,70,78],"screen_resolution":1,"trial_type":"horizons-trial","trial_index":150,"time_elapsed":1667812,"internal_node_id":"0.0-151.0"},{"horizon":10,"rewards_L":[78,57,47,53,79,51,64,50,49,59],"rewards_R":[66,59,48,58,67,54,66,72,71,67],"key_presses":["arrowleft","arrowleft","arrowright","arrowright","arrowleft","arrowright","arrowleft","arrowright","arrowleft","arrowright"],"response_times":[56,128,24,96,16,96,25,79,32,96],"outcomes":[78,57,48,58,79,54,64,72,49,67],"screen_resolution":1,"trial_type":"horizons-trial","trial_index":151,"time_elapsed":1668981,"internal_node_id":"0.0-152.0"},{"horizon":10,"rewards_L":[50,52,46,48,57,46,53,40,38,53],"rewards_R":[32,42,39,35,38,42,49,39,35,42],"key_presses":["arrowleft","arrowright","arrowright","arrowleft","arrowright","arrowleft","arrowright","arrowright","arrowleft","arrowright"],"response_times":[31,80,112,64,48,80,16,112,0,104],"outcomes":[50,42,39,48,38,46,49,39,38,42],"screen_resolution":1,"trial_type":"horizons-trial","trial_index":152,"time_elapsed":1670157,"internal_node_id":"0.0-153.0"},{"horizon":10,"rewards_L":[44,46,38,40,56,37,41,47,44,40],"rewards_R":[41,35,42,60,35,33,35,44,27,39],"key_presses":["arrowleft","arrowleft","arrowright","arrowleft","arrowright","arrowright","arrowleft","arrowright","arrowleft","arrowright"],"response_times":[32,112,73,64,32,104,0,120,8,96],"outcomes":[44,46,42,40,35,33,41,44,44,39],"screen_resolution":1,"trial_type":"horizons-trial","trial_index":153,"time_elapsed":1671309,"internal_node_id":"0.0-154.0"},{"horizon":10,"rewards_L":[69,58,49,64,52,59,56,52,63,58],"rewards_R":[42,54,46,45,55,39,58,49,39,56],"key_presses":["arrowleft","arrowright","arrowright","arrowright","arrowleft","arrowright","arrowleft","arrowright","arrowright","arrowleft"],"response_times":[15,89,111,112,64,48,72,25,112,0],"outcomes":[69,54,46,45,52,39,56,49,39,58],"screen_resolution":1,"trial_type":"horizons-trial","trial_index":154,"time_elapsed":1672469,"internal_node_id":"0.0-155.0"},{"horizon":10,"rewards_L":[37,31,44,37,48,40,38,35,48,45],"rewards_R":[49,33,32,39,65,32,53,32,43,41],"key_presses":["arrowleft","arrowleft","arrowright","arrowright","arrowleft","arrowright","arrowright","arrowleft","arrowright","arrowleft"],"response_times":[15,96,80,112,64,24,88,17,87,56],"outcomes":[37,31,32,39,48,32,53,35,43,45],"screen_resolution":1,"trial_type":"horizons-trial","trial_index":155,"time_elapsed":1673621,"internal_node_id":"0.0-156.0"},{"horizon":10,"rewards_L":[83,100,84,86,84,86,91,100,98,81],"rewards_R":[62,58,64,66,62,60,61,54,59,50],"key_presses":["arrowright","arrowright","arrowleft","arrowleft","arrowright","arrowleft","arrowright","arrowleft","arrowright","arrowright"],"response_times":[55,96,80,120,104,16,88,9,87,112],"outcomes":[62,58,84,86,62,86,61,100,59,50],"screen_resolution":1,"trial_type":"horizons-trial","trial_index":156,"time_elapsed":1674917,"internal_node_id":"0.0-157.0"},{"horizon":10,"rewards_L":[38,26,26,48,34,41,32,23,38,46],"rewards_R":[32,46,51,50,38,42,68,63,50,51],"key_presses":["arrowleft","arrowright","arrowleft","arrowleft","arrowright","arrowleft","arrowright","arrowleft","arrowright","arrowleft"],"response_times":[8,97,96,175,24,56,40,64,112,0],"outcomes":[38,46,26,48,38,41,68,23,50,46],"screen_resolution":1,"trial_type":"horizons-trial","trial_index":157,"time_elapsed":1677437,"internal_node_id":"0.0-158.0"},{"horizon":5,"rewards_L":[99,97,70,99,84],"rewards_R":[63,68,70,60,58],"key_presses":["arrowleft","arrowleft","arrowright","arrowleft","arrowright"],"response_times":[2640,184,24,160,152],"outcomes":[99,97,70,99,58],"screen_resolution":1,"trial_type":"horizons-trial","trial_index":158,"time_elapsed":1681133,"internal_node_id":"0.0-159.0"},{"horizon":10,"rewards_L":[56,69,79,60,64,63,67,70,66,52],"rewards_R":[42,52,40,46,50,51,46,58,46,50],"key_presses":["arrowleft","arrowright","arrowright","arrowright","arrowleft","arrowright","arrowleft","arrowright","arrowleft","arrowright"],"response_times":[0,175,177,186,2,164,0,159,8,168],"outcomes":[56,52,40,46,64,51,67,58,66,50],"screen_resolution":1,"trial_type":"horizons-trial","trial_index":159,"time_elapsed":1690693,"internal_node_id":"0.0-160.0"},{"horizon":10,"rewards_L":[47,25,42,45,41,45,50,36,45,39],"rewards_R":[27,11,11,14,31,28,23,24,17,30],"key_presses":["arrowleft","arrowright","arrowright","arrowright","arrowleft","arrowright","arrowleft","arrowright","arrowleft","arrowleft"],"response_times":[183,128,152,136,8,128,0,128,0,136],"outcomes":[47,11,11,14,41,28,50,24,45,39],"screen_resolution":1,"trial_type":"horizons-trial","trial_index":160,"time_elapsed":1692253,"internal_node_id":"0.0-161.0"},{"horizon":10,"rewards_L":[40,46,22,45,33,27,39,48,34,39],"rewards_R":[66,64,57,49,61,61,74,56,64,66],"key_presses":["arrowleft","arrowright","arrowleft","arrowright","arrowleft","arrowleft","arrowright","arrowright","arrowleft","arrowright"],"response_times":[0,135,0,136,0,136,8,128,0,152],"outcomes":[40,64,22,49,33,27,74,56,34,66],"screen_resolution":1,"trial_type":"horizons-trial","trial_index":161,"time_elapsed":1693509,"internal_node_id":"0.0-162.0"},{"horizon":5,"rewards_L":[66,57,51,65,64],"rewards_R":[53,37,36,40,45],"key_presses":["arrowleft","arrowright","arrowright","arrowleft","arrowright"],"response_times":[0,144,144,0,120],"outcomes":[66,37,36,65,45],"screen_resolution":1,"trial_type":"horizons-trial","trial_index":162,"time_elapsed":1694445,"internal_node_id":"0.0-163.0"},{"horizon":10,"rewards_L":[13,32,33,21,28,27,39,22,35,31],"rewards_R":[21,33,33,34,32,29,39,38,36,58],"key_presses":["arrowright","arrowleft","arrowleft","arrowleft","arrowright","arrowright","arrowleft","arrowright","arrowleft","arrowright"],"response_times":[152,121,119,144,16,128,0,136,0,160],"outcomes":[21,32,33,21,32,29,39,38,35,58],"screen_resolution":1,"trial_type":"horizons-trial","trial_index":163,"time_elapsed":1696951,"internal_node_id":"0.0-164.0"},{"horizon":10,"rewards_L":[33,40,42,28,23,34,56,33,32,34],"rewards_R":[46,55,50,55,52,48,45,57,60,65],"key_presses":["arrowright","arrowright","arrowleft","arrowright","arrowleft","arrowleft","arrowright","arrowleft","arrowright","arrowleft"],"response_times":[6,168,0,168,1,167,16,137,7,144],"outcomes":[46,55,42,55,23,34,45,33,60,34],"screen_resolution":1,"trial_type":"horizons-trial","trial_index":164,"time_elapsed":1698397,"internal_node_id":"0.0-165.0"},{"horizon":5,"rewards_L":[51,54,45,35,48],"rewards_R":[48,43,35,50,40],"key_presses":["arrowleft","arrowright","arrowright","arrowleft","arrowright"],"response_times":[0,159,168,144,16],"outcomes":[51,43,35,35,40],"screen_resolution":1,"trial_type":"horizons-trial","trial_index":165,"time_elapsed":1699477,"internal_node_id":"0.0-166.0"},{"horizon":5,"rewards_L":[63,48,67,65,54],"rewards_R":[89,86,92,86,87],"key_presses":["arrowleft","arrowright","arrowleft","arrowleft","arrowleft"],"response_times":[136,136,7,137,120],"outcomes":[63,86,67,65,54],"screen_resolution":1,"trial_type":"horizons-trial","trial_index":166,"time_elapsed":1700614,"internal_node_id":"0.0-167.0"},{"horizon":5,"rewards_L":[16,15,23,32,20],"rewards_R":[27,30,59,28,32],"key_presses":["arrowleft","arrowright","arrowleft","arrowright","arrowleft"],"response_times":[0,159,136,153,143],"outcomes":[16,30,23,28,20],"screen_resolution":1,"trial_type":"horizons-trial","trial_index":167,"time_elapsed":1701750,"internal_node_id":"0.0-168.0"},{"horizon":10,"rewards_L":[38,38,34,39,26,58,30,53,46,31],"rewards_R":[69,42,67,61,52,59,64,62,53,55],"key_presses":["arrowright","arrowright","arrowleft","arrowright","arrowleft","arrowright","arrowleft","arrowright","arrowleft","arrowright"],"response_times":[17560,168,0,144,0,152,0,168,0,136],"outcomes":[69,42,34,61,26,59,30,62,46,55],"screen_resolution":1,"trial_type":"horizons-trial","trial_index":168,"time_elapsed":1720630,"internal_node_id":"0.0-169.0"},{"horizon":5,"rewards_L":[88,79,66,95,82],"rewards_R":[63,57,59,61,63],"key_presses":["arrowleft","arrowleft","arrowright","arrowright","arrowleft"],"response_times":[0,136,127,152,0],"outcomes":[88,79,59,61,82],"screen_resolution":1,"trial_type":"horizons-trial","trial_index":169,"time_elapsed":1721582,"internal_node_id":"0.0-170.0"},{"horizon":5,"rewards_L":[50,50,71,63,55],"rewards_R":[58,58,56,57,53],"key_presses":["arrowleft","arrowright","arrowright","arrowright","arrowleft"],"response_times":[0,159,128,161,127],"outcomes":[50,58,56,57,55],"screen_resolution":1,"trial_type":"horizons-trial","trial_index":170,"time_elapsed":1722726,"internal_node_id":"0.0-171.0"},{"horizon":5,"rewards_L":[55,58,64,65,68],"rewards_R":[71,57,77,63,68],"key_presses":["arrowright","arrowright","arrowleft","arrowright","arrowleft"],"response_times":[152,120,0,152,129],"outcomes":[71,57,64,63,68],"screen_resolution":1,"trial_type":"horizons-trial","trial_index":171,"time_elapsed":1723831,"internal_node_id":"0.0-172.0"},{"horizon":10,"rewards_L":[37,32,24,28,36,37,42,25,20,23],"rewards_R":[64,54,68,59,55,46,72,58,51,53],"key_presses":["arrowleft","arrowright","arrowright","arrowleft","arrowright","arrowleft","arrowright","arrowleft","arrowright","arrowright"],"response_times":[135,127,128,128,8,128,8,112,16,103],"outcomes":[37,54,68,28,55,37,72,25,51,53],"screen_resolution":1,"trial_type":"horizons-trial","trial_index":172,"time_elapsed":1725262,"internal_node_id":"0.0-173.0"},{"horizon":10,"rewards_L":[54,44,35,31,46,46,47,44,41,54],"rewards_R":[56,69,75,69,62,71,62,53,49,56],"key_presses":["arrowright","arrowright","arrowleft","arrowleft","arrowright","arrowleft","arrowleft","arrowright","arrowright","arrowleft"],"response_times":[7,232,8,152,160,0,144,18,94,0],"outcomes":[56,69,35,31,62,46,47,53,49,54],"screen_resolution":1,"trial_type":"horizons-trial","trial_index":173,"time_elapsed":1726822,"internal_node_id":"0.0-174.0"},{"horizon":5,"rewards_L":[41,39,38,47,36],"rewards_R":[54,69,50,48,56],"key_presses":["arrowright","arrowleft","arrowleft","arrowleft","arrowright"],"response_times":[7,65529,176,144,160],"outcomes":[54,39,38,47,56],"screen_resolution":1,"trial_type":"horizons-trial","trial_index":174,"time_elapsed":1793456,"internal_node_id":"0.0-175.0"},{"horizon":5,"rewards_L":[36,30,34,43,30],"rewards_R":[31,42,41,35,28],"key_presses":["arrowleft","arrowright","arrowleft","arrowright","arrowleft"],"response_times":[0,152,0,144,0],"outcomes":[36,42,34,35,30],"screen_resolution":1,"trial_type":"horizons-trial","trial_index":175,"time_elapsed":1794312,"internal_node_id":"0.0-176.0"},{"horizon":5,"rewards_L":[39,46,45,41,42],"rewards_R":[51,49,57,51,52],"key_presses":["arrowleft","arrowright","arrowright","arrowleft","arrowright"],"response_times":[0,151,272,0,136],"outcomes":[39,49,57,41,52],"screen_resolution":1,"trial_type":"horizons-trial","trial_index":176,"time_elapsed":1795408,"internal_node_id":"0.0-177.0"},{"horizon":5,"rewards_L":[47,60,55,62,64],"rewards_R":[35,52,47,70,49],"key_presses":["arrowleft","arrowright","arrowright","arrowright","arrowleft"],"response_times":[7,152,160,152,0],"outcomes":[47,52,47,70,64],"screen_resolution":1,"trial_type":"horizons-trial","trial_index":177,"time_elapsed":1796392,"internal_node_id":"0.0-178.0"},{"horizon":5,"rewards_L":[62,81,60,62,60],"rewards_R":[75,64,55,70,52],"key_presses":["arrowright","arrowleft","arrowleft","arrowright","arrowleft"],"response_times":[184,128,128,144,16],"outcomes":[75,81,60,70,60],"screen_resolution":1,"trial_type":"horizons-trial","trial_index":178,"time_elapsed":1797624,"internal_node_id":"0.0-179.0"},{"horizon":5,"rewards_L":[65,60,75,45,58],"rewards_R":[83,82,92,71,64],"key_presses":["arrowright","arrowright","arrowleft","arrowright","arrowleft"],"response_times":[135,144,8,144,8],"outcomes":[83,82,75,71,58],"screen_resolution":1,"trial_type":"horizons-trial","trial_index":179,"time_elapsed":1798648,"internal_node_id":"0.0-180.0"},{"horizon":5,"rewards_L":[0,10,0,6,17],"rewards_R":[42,48,49,63,33],"key_presses":["arrowright","arrowleft","arrowleft","arrowleft","arrowright"],"response_times":[144,0,152,152,152],"outcomes":[42,10,0,6,33],"screen_resolution":1,"trial_type":"horizons-trial","trial_index":180,"time_elapsed":1799888,"internal_node_id":"0.0-181.0"},{"horizon":10,"rewards_L":[82,76,79,78,93,71,72,83,77,84],"rewards_R":[65,67,52,52,61,47,71,66,62,52],"key_presses":["arrowleft","arrowleft","arrowright","arrowright","arrowleft","arrowright","arrowleft","arrowright","arrowleft","arrowleft"],"response_times":[7,160,144,144,8,152,0,160,0,152],"outcomes":[82,76,52,52,93,47,72,66,77,84],"screen_resolution":1,"trial_type":"horizons-trial","trial_index":181,"time_elapsed":1801328,"internal_node_id":"0.0-182.0"},{"horizon":5,"rewards_L":[44,48,37,41,44],"rewards_R":[33,27,27,16,15],"key_presses":["arrowleft","arrowleft","arrowleft","arrowright","arrowleft"],"response_times":[151,168,160,312,0],"outcomes":[44,48,37,16,44],"screen_resolution":1,"trial_type":"horizons-trial","trial_index":182,"time_elapsed":1802712,"internal_node_id":"0.0-183.0"},{"horizon":10,"rewards_L":[59,57,47,62,60,59,50,72,59,56],"rewards_R":[42,44,45,47,30,51,50,32,53,37],"key_presses":["arrowright","arrowleft","arrowright","arrowright","arrowleft","arrowleft","arrowright","arrowright","arrowleft","arrowright"],"response_times":[151,8,152,168,0,152,8,153,0,159],"outcomes":[42,57,45,47,60,59,50,32,59,37],"screen_resolution":1,"trial_type":"horizons-trial","trial_index":183,"time_elapsed":1804256,"internal_node_id":"0.0-184.0"},{"horizon":10,"rewards_L":[57,50,77,69,52,47,68,54,66,68],"rewards_R":[16,22,27,34,20,14,23,34,34,29],"key_presses":["arrowleft","arrowright","arrowright","arrowleft","arrowleft","arrowleft","arrowright","arrowright","arrowleft","arrowright"],"response_times":[0,151,184,176,168,184,16,144,0,160],"outcomes":[57,22,27,69,52,47,23,34,66,29],"screen_resolution":1,"trial_type":"horizons-trial","trial_index":184,"time_elapsed":1805961,"internal_node_id":"0.0-185.0"},{"horizon":10,"rewards_L":[40,49,58,49,68,48,46,55,35,54],"rewards_R":[59,58,45,68,63,57,49,62,49,75],"key_presses":["arrowright","arrowleft","arrowleft","arrowright","arrowright","arrowleft","arrowright","arrowleft","arrowright","arrowleft"],"response_times":[175,8,169,16,136,0,167,8,168,1],"outcomes":[59,49,58,68,63,48,49,55,49,54],"screen_resolution":1,"trial_type":"horizons-trial","trial_index":185,"time_elapsed":1807321,"internal_node_id":"0.0-186.0"},{"horizon":5,"rewards_L":[81,80,74,72,76],"rewards_R":[32,36,38,36,32],"key_presses":["arrowright","arrowleft","arrowright","arrowleft","arrowleft"],"response_times":[159,0,160,8,168],"outcomes":[32,80,38,72,76],"screen_resolution":1,"trial_type":"horizons-trial","trial_index":186,"time_elapsed":1808320,"internal_node_id":"0.0-187.0"},{"horizon":5,"rewards_L":[29,37,21,23,31],"rewards_R":[27,39,44,48,33],"key_presses":["arrowright","arrowright","arrowright","arrowleft","arrowleft"],"response_times":[183,144,184,144,176],"outcomes":[27,39,44,23,31],"screen_resolution":1,"trial_type":"horizons-trial","trial_index":187,"time_elapsed":1809664,"internal_node_id":"0.0-188.0"},{"horizon":5,"rewards_L":[72,56,58,54,56],"rewards_R":[43,63,63,53,47],"key_presses":["arrowleft","arrowleft","arrowright","arrowleft","arrowright"],"response_times":[0,176,159,0,184],"outcomes":[72,56,63,54,47],"screen_resolution":1,"trial_type":"horizons-trial","trial_index":188,"time_elapsed":1810696,"internal_node_id":"0.0-189.0"},{"horizon":10,"rewards_L":[49,39,52,51,44,42,57,48,61,69],"rewards_R":[55,58,66,38,68,59,56,56,61,58],"key_presses":["arrowright","arrowleft","arrowright","arrowleft","arrowright","arrowleft","arrowright","arrowleft","arrowright","arrowleft"],"response_times":[160,0,160,8,168,8,176,0,184,17],"outcomes":[55,39,66,51,68,42,56,48,61,69],"screen_resolution":1,"trial_type":"horizons-trial","trial_index":189,"time_elapsed":1812104,"internal_node_id":"0.0-190.0"},{"horizon":5,"rewards_L":[30,46,43,42,36],"rewards_R":[60,39,43,56,40],"key_presses":["arrowleft","arrowright","arrowleft","arrowright","arrowleft"],"response_times":[8,159,8,160,0],"outcomes":[30,39,43,56,36],"screen_resolution":1,"trial_type":"horizons-trial","trial_index":190,"time_elapsed":1812976,"internal_node_id":"0.0-191.0"},{"horizon":5,"rewards_L":[34,47,32,45,41],"rewards_R":[58,60,60,58,68],"key_presses":["arrowright","arrowleft","arrowright","arrowleft","arrowright"],"response_times":[192,8,176,0,136],"outcomes":[58,47,60,45,68],"screen_resolution":1,"trial_type":"horizons-trial","trial_index":191,"time_elapsed":1814017,"internal_node_id":"0.0-192.0"},{"horizon":10,"rewards_L":[57,68,57,68,67,67,44,48,61,54],"rewards_R":[36,47,35,46,72,37,52,56,29,54],"key_presses":["arrowleft","arrowright","arrowright","arrowleft","arrowright","arrowleft","arrowright","arrowleft","arrowright","arrowleft"],"response_times":[0,175,176,0,177,1,151,16,160,0],"outcomes":[57,47,35,68,72,67,52,48,29,54],"screen_resolution":1,"trial_type":"horizons-trial","trial_index":192,"time_elapsed":1815400,"internal_node_id":"0.0-193.0"},{"horizon":5,"rewards_L":[54,68,51,67,55],"rewards_R":[46,37,29,46,52],"key_presses":["arrowright","arrowleft","arrowleft","arrowright","arrowleft"],"response_times":[176,1,175,168,8],"outcomes":[46,68,51,46,55],"screen_resolution":1,"trial_type":"horizons-trial","trial_index":193,"time_elapsed":1816464,"internal_node_id":"0.0-194.0"},{"horizon":10,"rewards_L":[71,63,65,66,74,76,66,56,77,59],"rewards_R":[49,42,36,34,26,44,32,37,30,54],"key_presses":["arrowleft","arrowleft","arrowright","arrowleft","arrowright","arrowleft","arrowright","arrowleft","arrowright","arrowright"],"response_times":[0,168,8,160,8,176,32,112,8,152],"outcomes":[71,63,36,66,26,76,32,56,30,54],"screen_resolution":1,"trial_type":"horizons-trial","trial_index":194,"time_elapsed":1817937,"internal_node_id":"0.0-195.0"},{"horizon":10,"rewards_L":[44,38,28,32,22,46,34,47,32,33],"rewards_R":[58,55,52,62,45,56,40,60,62,53],"key_presses":["arrowright","arrowleft","arrowleft","arrowright","arrowleft","arrowright","arrowleft","arrowright","arrowleft","arrowright"],"response_times":[159,0,168,160,16,144,0,169,0,151],"outcomes":[58,38,28,62,22,56,34,60,32,53],"screen_resolution":1,"trial_type":"horizons-trial","trial_index":195,"time_elapsed":1819545,"internal_node_id":"0.0-196.0"},{"horizon":10,"rewards_L":[42,43,58,49,61,46,49,53,52,47],"rewards_R":[65,51,62,54,58,56,53,74,63,63],"key_presses":["arrowright","arrowright","arrowright","arrowleft","arrowright","arrowleft","arrowright","arrowleft","arrowright","arrowleft"],"response_times":[183,136,160,8,136,8,153,0,159,0],"outcomes":[65,51,62,49,58,46,53,53,63,47],"screen_resolution":1,"trial_type":"horizons-trial","trial_index":196,"time_elapsed":1821137,"internal_node_id":"0.0-197.0"},{"horizon":10,"rewards_L":[84,64,67,62,62,67,69,70,61,62],"rewards_R":[57,61,60,43,63,55,59,50,62,58],"key_presses":["arrowright","arrowleft","arrowright","arrowright","arrowleft","arrowleft","arrowright","arrowleft","arrowright","arrowright"],"response_times":[175,136,8,152,0,144,16,137,8,144],"outcomes":[57,64,60,43,62,67,59,70,62,58],"screen_resolution":1,"trial_type":"horizons-trial","trial_index":197,"time_elapsed":1822641,"internal_node_id":"0.0-198.0"},{"horizon":10,"rewards_L":[45,45,66,56,46,55,49,65,69,74],"rewards_R":[93,88,93,77,92,96,79,94,92,98],"key_presses":["arrowright","arrowright","arrowleft","arrowright","arrowleft","arrowright","arrowright","arrowleft","arrowright","arrowleft"],"response_times":[159,168,1,175,160,8,168,0,160,16],"outcomes":[93,88,66,77,46,96,79,65,92,74],"screen_resolution":1,"trial_type":"horizons-trial","trial_index":198,"time_elapsed":1824321,"internal_node_id":"0.0-199.0"},{"horizon":10,"rewards_L":[81,84,71,71,80,84,75,89,84,98],"rewards_R":[60,56,71,53,66,51,43,71,60,68],"key_presses":["arrowright","arrowleft","arrowleft","arrowright","arrowleft","arrowright","arrowleft","arrowright","arrowleft","arrowright"],"response_times":[16,152,168,8,175,8,168,16,168,16],"outcomes":[60,84,71,53,80,51,75,71,84,68],"screen_resolution":1,"trial_type":"horizons-trial","trial_index":199,"time_elapsed":1825897,"internal_node_id":"0.0-200.0"},{"horizon":5,"rewards_L":[31,34,25,24,50],"rewards_R":[58,68,71,44,57],"key_presses":["arrowleft","arrowleft","arrowright","arrowright","arrowright"],"response_times":[8,176,184,175,160],"outcomes":[31,34,71,44,57],"screen_resolution":1,"trial_type":"horizons-trial","trial_index":200,"time_elapsed":1827105,"internal_node_id":"0.0-201.0"},{"horizon":10,"rewards_L":[24,40,48,45,40,41,29,35,30,35],"rewards_R":[16,9,28,12,18,9,21,12,11,11],"key_presses":["arrowleft","arrowleft","arrowleft","arrowright","arrowleft","arrowleft","arrowright","arrowright","arrowleft","arrowright"],"response_times":[1,151,169,183,0,184,7,180,1,172],"outcomes":[24,40,48,12,40,41,21,12,30,11],"screen_resolution":1,"trial_type":"horizons-trial","trial_index":201,"time_elapsed":1828681,"internal_node_id":"0.0-202.0"},{"horizon":10,"rewards_L":[44,55,25,37,65,39,44,33,37,44],"rewards_R":[30,11,43,22,42,22,27,20,19,33],"key_presses":["arrowleft","arrowleft","arrowleft","arrowright","arrowleft","arrowright","arrowleft","arrowright","arrowleft","arrowright"],"response_times":[0,167,160,176,0,167,0,176,0,176],"outcomes":[44,55,25,22,65,22,44,20,37,33],"screen_resolution":1,"trial_type":"horizons-trial","trial_index":202,"time_elapsed":1830209,"internal_node_id":"0.0-203.0"},{"horizon":10,"rewards_L":[59,65,67,65,53,58,56,58,52,61],"rewards_R":[68,70,83,77,79,73,69,81,75,77],"key_presses":["arrowright","arrowleft","arrowright","arrowleft","arrowright","arrowleft","arrowright","arrowleft","arrowleft","arrowright"],"response_times":[168,0,168,26,158,1,175,1,166,8],"outcomes":[68,65,83,65,79,58,69,58,52,77],"screen_resolution":1,"trial_type":"horizons-trial","trial_index":203,"time_elapsed":1831585,"internal_node_id":"0.0-204.0"},{"horizon":10,"rewards_L":[67,68,76,60,62,72,70,68,58,72],"rewards_R":[64,64,51,60,79,68,52,76,59,68],"key_presses":["arrowleft","arrowleft","arrowright","arrowleft","arrowright","arrowleft","arrowright","arrowleft","arrowright","arrowleft"],"response_times":[168,152,151,0,152,0,144,9,144,0],"outcomes":[67,68,51,60,79,72,52,68,59,72],"screen_resolution":1,"trial_type":"horizons-trial","trial_index":204,"time_elapsed":2003197,"internal_node_id":"0.0-205.0"},{"horizon":5,"rewards_L":[28,19,32,24,41],"rewards_R":[44,37,46,36,47],"key_presses":["arrowleft","arrowleft","arrowright","arrowright","arrowleft"],"response_times":[23,136,56,136,104],"outcomes":[28,19,46,36,41],"screen_resolution":1,"trial_type":"horizons-trial","trial_index":205,"time_elapsed":2004181,"internal_node_id":"0.0-206.0"},{"horizon":10,"rewards_L":[56,50,64,50,54,62,61,59,77,46],"rewards_R":[67,58,47,50,50,57,47,50,46,41],"key_presses":["arrowleft","arrowleft","arrowright","arrowright","arrowleft","arrowright","arrowright","arrowleft","arrowright","arrowleft"],"response_times":[47,161,127,128,48,32,120,0,136,8],"outcomes":[56,50,47,50,54,57,47,59,46,46],"screen_resolution":1,"trial_type":"horizons-trial","trial_index":206,"time_elapsed":2005574,"internal_node_id":"0.0-207.0"},{"horizon":5,"rewards_L":[38,26,31,46,40],"rewards_R":[11,28,2,19,20],"key_presses":["arrowleft","arrowleft","arrowright","arrowright","arrowleft"],"response_times":[167,160,104,136,72],"outcomes":[38,26,2,19,40],"screen_resolution":1,"trial_type":"horizons-trial","trial_index":207,"time_elapsed":2006725,"internal_node_id":"0.0-208.0"},{"horizon":10,"rewards_L":[2,3,23,17,7,14,6,0,6,12],"rewards_R":[49,37,55,48,46,40,42,41,41,59],"key_presses":["arrowright","arrowleft","arrowleft","arrowleft","arrowright","arrowleft","arrowright","arrowleft","arrowright","arrowright"],"response_times":[136,1,167,160,32,129,16,136,8,161],"outcomes":[49,3,23,17,46,14,42,0,41,59],"screen_resolution":1,"trial_type":"horizons-trial","trial_index":208,"time_elapsed":2008253,"internal_node_id":"0.0-209.0"},{"horizon":5,"rewards_L":[62,61,68,54,58],"rewards_R":[60,42,37,63,59],"key_presses":["arrowleft","arrowleft","arrowleft","arrowright","arrowleft"],"response_times":[80,176,144,40,120],"outcomes":[62,61,68,63,58],"screen_resolution":1,"trial_type":"horizons-trial","trial_index":209,"time_elapsed":2009374,"internal_node_id":"0.0-210.0"},{"horizon":5,"rewards_L":[83,72,78,48,73],"rewards_R":[59,57,68,53,57],"key_presses":["arrowleft","arrowright","arrowright","arrowleft","arrowright"],"response_times":[88,56,144,120,24],"outcomes":[83,57,68,48,57],"screen_resolution":1,"trial_type":"horizons-trial","trial_index":210,"time_elapsed":2010358,"internal_node_id":"0.0-211.0"},{"horizon":10,"rewards_L":[52,57,43,66,59,59,53,66,65,57],"rewards_R":[61,62,65,71,67,50,59,74,63,65],"key_presses":["arrowleft","arrowright","arrowleft","arrowleft","arrowright","arrowright","arrowleft","arrowright","arrowleft","arrowright"],"response_times":[63,80,96,152,16,136,32,80,72,72],"outcomes":[52,62,43,66,67,50,53,74,65,65],"screen_resolution":1,"trial_type":"horizons-trial","trial_index":211,"time_elapsed":2011758,"internal_node_id":"0.0-212.0"},{"horizon":5,"rewards_L":[61,68,48,43,49],"rewards_R":[87,60,75,67,58],"key_presses":["arrowright","arrowleft","arrowright","arrowleft","arrowright"],"response_times":[143,40,113,32,120],"outcomes":[87,68,75,43,58],"screen_resolution":1,"trial_type":"horizons-trial","trial_index":212,"time_elapsed":2012710,"internal_node_id":"0.0-213.0"},{"horizon":5,"rewards_L":[20,14,0,12,27],"rewards_R":[49,30,52,46,40],"key_presses":["arrowright","arrowleft","arrowleft","arrowright","arrowright"],"response_times":[152,80,160,32,137],"outcomes":[49,14,0,46,40],"screen_resolution":1,"trial_type":"horizons-trial","trial_index":213,"time_elapsed":2013790,"internal_node_id":"0.0-214.0"},{"horizon":5,"rewards_L":[65,75,58,74,75],"rewards_R":[52,52,54,72,48],"key_presses":["arrowright","arrowleft","arrowright","arrowright","arrowright"],"response_times":[72,87,64,136,144],"outcomes":[52,75,54,72,48],"screen_resolution":1,"trial_type":"horizons-trial","trial_index":214,"time_elapsed":2014822,"internal_node_id":"0.0-215.0"},{"horizon":10,"rewards_L":[35,40,39,49,45,32,27,43,43,36],"rewards_R":[31,36,40,48,40,53,46,44,42,61],"key_presses":["arrowleft","arrowright","arrowright","arrowleft","arrowright","arrowleft","arrowright","arrowright","arrowleft","arrowright"],"response_times":[24,120,128,72,72,103,32,136,0,128],"outcomes":[35,36,40,49,40,32,46,44,43,61],"screen_resolution":1,"trial_type":"horizons-trial","trial_index":215,"time_elapsed":2016150,"internal_node_id":"0.0-216.0"},{"horizon":5,"rewards_L":[67,61,66,68,61],"rewards_R":[52,43,46,61,49],"key_presses":["arrowleft","arrowright","arrowleft","arrowright","arrowleft"],"response_times":[63,88,80,56,113],"outcomes":[67,43,66,61,61],"screen_resolution":1,"trial_type":"horizons-trial","trial_index":216,"time_elapsed":2017094,"internal_node_id":"0.0-217.0"},{"horizon":5,"rewards_L":[56,43,39,35,42],"rewards_R":[67,78,54,58,62],"key_presses":["arrowright","arrowright","arrowleft","arrowleft","arrowright"],"response_times":[39,152,144,184,104],"outcomes":[67,78,39,35,62],"screen_resolution":1,"trial_type":"horizons-trial","trial_index":217,"time_elapsed":2018270,"internal_node_id":"0.0-218.0"},{"horizon":5,"rewards_L":[49,52,40,37,58],"rewards_R":[47,41,34,40,45],"key_presses":["arrowright","arrowleft","arrowright","arrowright","arrowright"],"response_times":[135,56,80,104,112],"outcomes":[47,52,34,40,45],"screen_resolution":1,"trial_type":"horizons-trial","trial_index":218,"time_elapsed":2019286,"internal_node_id":"0.0-219.0"},{"horizon":10,"rewards_L":[54,48,62,64,73,46,70,63,58,63],"rewards_R":[74,70,70,74,55,63,78,61,59,54],"key_presses":["arrowright","arrowright","arrowleft","arrowright","arrowleft","arrowright","arrowleft","arrowright","arrowright","arrowleft"],"response_times":[71,144,160,704,64,64,104,24,152,0],"outcomes":[74,70,62,74,73,63,70,61,59,63],"screen_resolution":1,"trial_type":"horizons-trial","trial_index":219,"time_elapsed":2021366,"internal_node_id":"0.0-220.0"},{"horizon":5,"rewards_L":[63,72,63,64,56],"rewards_R":[55,59,65,73,52],"key_presses":["arrowleft","arrowright","arrowleft","arrowright","arrowleft"],"response_times":[143,56,88,56,64],"outcomes":[63,59,63,73,56],"screen_resolution":1,"trial_type":"horizons-trial","trial_index":220,"time_elapsed":2022278,"internal_node_id":"0.0-221.0"},{"horizon":10,"rewards_L":[96,88,81,93,89,97,100,97,89,95],"rewards_R":[51,56,78,49,58,48,64,58,51,57],"key_presses":["arrowleft","arrowleft","arrowright","arrowleft","arrowright","arrowleft","arrowright","arrowleft","arrowright","arrowleft"],"response_times":[119,152,16,96,40,80,40,88,48,80],"outcomes":[96,88,78,93,58,97,64,97,51,95],"screen_resolution":1,"trial_type":"horizons-trial","trial_index":221,"time_elapsed":2023550,"internal_node_id":"0.0-222.0"},{"horizon":5,"rewards_L":[43,54,51,74,55],"rewards_R":[79,84,79,72,67],"key_presses":["arrowleft","arrowright","arrowleft","arrowleft","arrowright"],"response_times":[135,64,80,128,48],"outcomes":[43,84,51,74,67],"screen_resolution":1,"trial_type":"horizons-trial","trial_index":222,"time_elapsed":2024534,"internal_node_id":"0.0-223.0"},{"horizon":5,"rewards_L":[48,65,70,64,47],"rewards_R":[66,59,61,63,63],"key_presses":["arrowright","arrowleft","arrowright","arrowleft","arrowright"],"response_times":[144,88,48,88,49],"outcomes":[66,65,61,64,63],"screen_resolution":1,"trial_type":"horizons-trial","trial_index":223,"time_elapsed":2025494,"internal_node_id":"0.0-224.0"},{"horizon":10,"rewards_L":[62,59,51,52,56,69,75,59,61,73],"rewards_R":[62,65,58,51,80,65,54,62,53,60],"key_presses":["arrowleft","arrowright","arrowright","arrowleft","arrowright","arrowleft","arrowleft","arrowright","arrowleft","arrowright"],"response_times":[72,64,137,224,48,48,144,72,65,56],"outcomes":[62,65,58,52,80,69,75,62,61,60],"screen_resolution":1,"trial_type":"horizons-trial","trial_index":224,"time_elapsed":2026950,"internal_node_id":"0.0-225.0"},{"horizon":10,"rewards_L":[34,42,57,58,40,43,47,39,56,41],"rewards_R":[59,56,67,56,49,43,52,50,52,53],"key_presses":["arrowright","arrowright","arrowleft","arrowleft","arrowright","arrowleft","arrowright","arrowleft","arrowright","arrowleft"],"response_times":[64,151,56,168,48,80,56,80,64,88],"outcomes":[59,56,57,58,49,43,52,39,52,41],"screen_resolution":1,"trial_type":"horizons-trial","trial_index":225,"time_elapsed":2028335,"internal_node_id":"0.0-226.0"},{"horizon":10,"rewards_L":[45,42,42,37,51,41,39,33,48,43],"rewards_R":[20,25,8,6,22,19,27,15,14,6],"key_presses":["arrowright","arrowleft","arrowleft","arrowright","arrowleft","arrowright","arrowleft","arrowright","arrowleft","arrowright"],"response_times":[151,72,168,56,96,63,96,56,96,64],"outcomes":[20,42,42,6,51,19,39,15,48,6],"screen_resolution":1,"trial_type":"horizons-trial","trial_index":226,"time_elapsed":2029822,"internal_node_id":"0.0-227.0"},{"horizon":5,"rewards_L":[59,65,61,55,60],"rewards_R":[33,48,40,42,34],"key_presses":["arrowleft","arrowleft","arrowleft","arrowright","arrowleft"],"response_times":[160,136,153,72,80],"outcomes":[59,65,61,42,60],"screen_resolution":1,"trial_type":"horizons-trial","trial_index":227,"time_elapsed":2030950,"internal_node_id":"0.0-228.0"},{"horizon":10,"rewards_L":[49,38,55,52,47,40,47,44,52,57],"rewards_R":[58,66,59,38,68,64,66,56,52,55],"key_presses":["arrowright","arrowright","arrowright","arrowleft","arrowright","arrowleft","arrowright","arrowleft","arrowright","arrowleft"],"response_times":[167,168,152,80,72,72,88,64,80,72],"outcomes":[58,66,59,52,68,40,66,44,52,57],"screen_resolution":1,"trial_type":"horizons-trial","trial_index":228,"time_elapsed":2032551,"internal_node_id":"0.0-229.0"},{"horizon":5,"rewards_L":[45,35,55,50,49],"rewards_R":[51,51,61,78,57],"key_presses":["arrowright","arrowleft","arrowleft","arrowright","arrowleft"],"response_times":[95,72,176,64,80],"outcomes":[51,35,55,78,49],"screen_resolution":1,"trial_type":"horizons-trial","trial_index":229,"time_elapsed":2033558,"internal_node_id":"0.0-230.0"},{"horizon":10,"rewards_L":[50,27,50,37,43,55,38,49,27,55],"rewards_R":[61,72,74,79,75,90,64,73,66,64],"key_presses":["arrowleft","arrowright","arrowright","arrowleft","arrowright","arrowleft","arrowleft","arrowright","arrowleft","arrowright"],"response_times":[88,104,184,81,87,64,128,72,72,88],"outcomes":[50,72,74,37,75,55,38,73,27,64],"screen_resolution":1,"trial_type":"horizons-trial","trial_index":230,"time_elapsed":2035047,"internal_node_id":"0.0-231.0"},{"horizon":5,"rewards_L":[61,53,53,61,66],"rewards_R":[99,92,98,87,87],"key_presses":["arrowright","arrowleft","arrowright","arrowleft","arrowright"],"response_times":[176,103,72,96,80],"outcomes":[99,53,98,61,87],"screen_resolution":1,"trial_type":"horizons-trial","trial_index":231,"time_elapsed":2036103,"internal_node_id":"0.0-232.0"},{"horizon":10,"rewards_L":[27,29,47,24,29,34,28,30,29,16],"rewards_R":[45,31,38,40,38,33,42,38,49,30],"key_presses":["arrowright","arrowright","arrowleft","arrowleft","arrowleft","arrowright","arrowleft","arrowright","arrowleft","arrowright"],"response_times":[63,144,79,120,152,88,73,96,88,72],"outcomes":[45,31,47,24,29,33,28,38,29,30],"screen_resolution":1,"trial_type":"horizons-trial","trial_index":232,"time_elapsed":2037654,"internal_node_id":"0.0-233.0"},{"horizon":5,"rewards_L":[26,48,41,38,30],"rewards_R":[0,8,10,0,15],"key_presses":["arrowleft","arrowright","arrowright","arrowleft","arrowright"],"response_times":[175,73,287,72,80],"outcomes":[26,8,10,38,15],"screen_resolution":1,"trial_type":"horizons-trial","trial_index":233,"time_elapsed":2038870,"internal_node_id":"0.0-234.0"},{"horizon":5,"rewards_L":[40,39,26,28,31],"rewards_R":[69,69,63,62,67],"key_presses":["arrowleft","arrowright","arrowleft","arrowleft","arrowright"],"response_times":[168,71,112,176,72],"outcomes":[40,69,26,28,67],"screen_resolution":1,"trial_type":"horizons-trial","trial_index":234,"time_elapsed":2040022,"internal_node_id":"0.0-235.0"},{"horizon":10,"rewards_L":[63,63,65,56,59,43,64,50,51,63],"rewards_R":[49,50,54,39,50,58,46,45,41,61],"key_presses":["arrowright","arrowright","arrowleft","arrowleft","arrowright","arrowleft","arrowright","arrowleft","arrowright","arrowright"],"response_times":[104,192,112,185,55,96,65,87,40,152],"outcomes":[49,50,65,56,50,43,46,50,41,61],"screen_resolution":1,"trial_type":"horizons-trial","trial_index":235,"time_elapsed":2041710,"internal_node_id":"0.0-236.0"},{"horizon":10,"rewards_L":[51,54,64,51,51,67,54,61,60,53],"rewards_R":[44,37,46,42,47,38,17,40,30,35],"key_presses":["arrowleft","arrowright","arrowright","arrowright","arrowright","arrowright","arrowleft","arrowright","arrowleft","arrowright"],"response_times":[175,104,192,168,120,144,72,128,96,96],"outcomes":[51,37,46,42,47,38,54,40,60,35],"screen_resolution":1,"trial_type":"horizons-trial","trial_index":236,"time_elapsed":2043575,"internal_node_id":"0.0-237.0"},{"horizon":5,"rewards_L":[52,84,69,70,63],"rewards_R":[36,29,50,36,52],"key_presses":["arrowleft","arrowleft","arrowright","arrowleft","arrowright"],"response_times":[127,144,32,456,120],"outcomes":[52,84,50,70,52],"screen_resolution":1,"trial_type":"horizons-trial","trial_index":237,"time_elapsed":2045247,"internal_node_id":"0.0-238.0"},{"horizon":10,"rewards_L":[84,70,89,71,75,75,92,88,64,74],"rewards_R":[56,36,61,47,61,55,47,75,71,75],"key_presses":["arrowright","arrowleft","arrowright","arrowright","arrowleft","arrowright","arrowleft","arrowright","arrowleft","arrowleft"],"response_times":[167,144,128,128,8,104,24,96,40,72],"outcomes":[56,70,61,47,75,55,92,75,64,74],"screen_resolution":1,"trial_type":"horizons-trial","trial_index":238,"time_elapsed":2046758,"internal_node_id":"0.0-239.0"},{"horizon":10,"rewards_L":[32,35,41,51,45,34,41,41,42,39],"rewards_R":[43,45,46,53,37,46,54,40,36,54],"key_presses":["arrowright","arrowright","arrowleft","arrowright","arrowleft","arrowright","arrowleft","arrowright","arrowleft","arrowright"],"response_times":[128,127,16,120,0,112,16,120,0,130],"outcomes":[43,45,41,53,45,46,41,40,42,54],"screen_resolution":1,"trial_type":"horizons-trial","trial_index":239,"time_elapsed":2048055,"internal_node_id":"0.0-240.0"},{"horizon":5,"rewards_L":[56,45,46,64,64],"rewards_R":[50,34,45,60,28],"key_presses":["arrowleft","arrowleft","arrowright","arrowleft","arrowright"],"response_times":[0,144,144,0,5472],"outcomes":[56,45,45,64,28],"screen_resolution":1,"trial_type":"horizons-trial","trial_index":240,"time_elapsed":2054399,"internal_node_id":"0.0-241.0"},{"horizon":5,"rewards_L":[53,47,58,62,71],"rewards_R":[58,58,61,55,48],"key_presses":["arrowleft","arrowright","arrowleft","arrowright","arrowright"],"response_times":[0,136,0,144,128],"outcomes":[53,58,58,55,48],"screen_resolution":1,"trial_type":"horizons-trial","trial_index":241,"time_elapsed":2055319,"internal_node_id":"0.0-242.0"},{"horizon":5,"rewards_L":[21,49,44,43,41],"rewards_R":[44,62,57,70,64],"key_presses":["arrowright","arrowleft","arrowright","arrowleft","arrowright"],"response_times":[127,0,144,0,96],"outcomes":[44,49,57,43,64],"screen_resolution":1,"trial_type":"horizons-trial","trial_index":242,"time_elapsed":2056199,"internal_node_id":"0.0-243.0"},{"horizon":5,"rewards_L":[74,75,80,75,68],"rewards_R":[55,57,66,63,54],"key_presses":["arrowright","arrowleft","arrowright","arrowright","arrowleft"],"response_times":[128,0,127,137,0],"outcomes":[55,75,66,63,68],"screen_resolution":1,"trial_type":"horizons-trial","trial_index":243,"time_elapsed":2057207,"internal_node_id":"0.0-244.0"},{"horizon":5,"rewards_L":[35,35,38,24,33],"rewards_R":[12,31,28,41,10],"key_presses":["arrowleft","arrowright","arrowright","arrowright","arrowleft"],"response_times":[0,136,120,128,0],"outcomes":[35,31,28,41,33],"screen_resolution":1,"trial_type":"horizons-trial","trial_index":244,"time_elapsed":2058111,"internal_node_id":"0.0-245.0"},{"horizon":5,"rewards_L":[60,59,64,61,52],"rewards_R":[28,23,34,26,46],"key_presses":["arrowleft","arrowleft","arrowleft","arrowright","arrowright"],"response_times":[128,128,1328,8,160],"outcomes":[60,59,64,26,46],"screen_resolution":1,"trial_type":"horizons-trial","trial_index":245,"time_elapsed":2060423,"internal_node_id":"0.0-246.0"},{"horizon":10,"rewards_L":[33,39,48,31,44,32,26,35,40,49],"rewards_R":[53,54,46,53,53,71,72,46,57,58],"key_presses":["arrowleft","arrowleft","arrowright","arrowright","arrowleft","arrowright","arrowleft","arrowright","arrowleft","arrowright"],"response_times":[0,143,160,104,0,136,1,129,2,140],"outcomes":[33,39,46,53,44,71,26,46,40,58],"screen_resolution":1,"trial_type":"horizons-trial","trial_index":246,"time_elapsed":2072560,"internal_node_id":"0.0-247.0"},{"horizon":5,"rewards_L":[38,57,46,50,65],"rewards_R":[73,83,79,74,77],"key_presses":["arrowleft","arrowright","arrowright","arrowleft","arrowright"],"response_times":[0,159,152,0,144],"outcomes":[38,83,79,50,77],"screen_resolution":1,"trial_type":"horizons-trial","trial_index":247,"time_elapsed":2073551,"internal_node_id":"0.0-248.0"},{"horizon":10,"rewards_L":[60,67,61,77,57,75,59,65,75,69],"rewards_R":[60,61,54,67,51,66,69,77,70,74],"key_presses":["arrowright","arrowleft","arrowright","arrowleft","arrowright","arrowleft","arrowright","arrowleft","arrowright","arrowleft"],"response_times":[8,111,8,137,127,0,128,0,136,0],"outcomes":[60,67,54,77,51,75,69,65,70,69],"screen_resolution":1,"trial_type":"horizons-trial","trial_index":248,"time_elapsed":2074807,"internal_node_id":"0.0-249.0"},{"horizon":10,"rewards_L":[36,39,8,19,30,14,16,28,15,24],"rewards_R":[42,38,51,39,42,42,46,35,38,46],"key_presses":["arrowright","arrowleft","arrowleft","arrowright","arrowleft","arrowright","arrowleft","arrowright","arrowleft","arrowright"],"response_times":[16,217,143,112,0,120,0,119,0,120],"outcomes":[42,39,8,39,30,42,16,35,15,46],"screen_resolution":1,"trial_type":"horizons-trial","trial_index":249,"time_elapsed":2076271,"internal_node_id":"0.0-250.0"},{"horizon":5,"rewards_L":[39,38,45,42,3