[{"success":true,"timeout":false,"failed_images":[],"failed_audio":[],"failed_video":[],"trial_type":"preload","trial_index":0,"time_elapsed":1417,"internal_node_id":"0.0-0.0"},{"success":true,"trial_type":"fullscreen","trial_index":1,"time_elapsed":229569,"internal_node_id":"0.0-1.0"},{"rt":1715,"stimulus":"<p>你将开始实验 実験を開始します<b>Horizons task.</b></p><p>查看说明请按 “1” 键，跳过说明请按 “2” 键。説明を見るには “1” キーを押してください。スキップするには “2” キーを押してください。</p>","response":"1","trial_type":"html-keyboard-response","trial_index":2,"time_elapsed":231307,"internal_node_id":"0.0-2.0"},{"view_history":[{"page_index":0,"viewing_time":22645},{"page_index":1,"viewing_time":2096},{"page_index":2,"viewing_time":1300},{"page_index":3,"viewing_time":2762},{"page_index":4,"viewing_time":1093},{"page_index":5,"viewing_time":850},{"page_index":6,"viewing_time":1717},{"page_index":7,"viewing_time":54143},{"page_index":8,"viewing_time":574},{"page_index":9,"viewing_time":1017}],"rt":88197,"trial_type":"instructions","trial_index":3,"time_elapsed":319509,"internal_node_id":"0.0-3.0-0.0"},{"horizon":5,"rewards_L":[44,57,74,72,62],"rewards_R":[31,33,24,39,29],"key_presses":["arrowright","arrowleft","arrowright","arrowright","arrowright"],"response_times":[6370,1636,623,689,1998],"outcomes":[31,57,24,39,29],"screen_resolution":1,"phase":"practice","trial_type":"horizons-trial","trial_index":4,"time_elapsed":357451,"internal_node_id":"0.0-3.0-1.0"},{"horizon":10,"rewards_L":[64,50,57,35,52,38,44,61,39,38],"rewards_R":[70,69,76,71,75,58,81,84,57,61],"key_presses":["arrowleft","arrowleft","arrowright","arrowright","arrowright","arrowright","arrowleft","arrowright","arrowleft","arrowright"],"response_times":[1801,790,932,346,4532,844,2192,1720,1887,1082],"outcomes":[64,50,76,71,75,58,44,84,39,61],"screen_resolution":1,"phase":"practice","trial_type":"horizons-trial","trial_index":5,"time_elapsed":416212,"internal_node_id":"0.0-3.0-2.0"},{"view_history":[{"page_index":0,"viewing_time":3041},{"page_index":1,"viewing_time":1528},{"page_index":2,"viewing_time":7628},{"page_index":3,"viewing_time":1697}],"rt":13894,"trial_type":"instructions","trial_index":6,"time_elapsed":430108,"internal_node_id":"0.0-3.0-3.0"},{"responses":["true","false","true"],"num_errors":0,"rt":18699,"trial_type":"horizons-comprehension","trial_index":7,"time_elapsed":448819,"internal_node_id":"0.0-3.0-4.0"},{"view_history":[{"page_index":0,"viewing_time":3255},{"page_index":1,"viewing_time":4531}],"rt":7786,"trial_type":"instructions","trial_index":8,"time_elapsed":456610,"internal_node_id":"0.0-4.0"},{"horizon":5,"rewards_L":[62,53,41,54,57],"rewards_R":[44,45,51,40,42],"key_presses":["arrowright","arrowright","arrowleft","arrowleft","arrowleft"],"response_times":[1516,501,878,471,5249],"outcomes":[44,45,41,54,57],"screen_resolution":1,"trial_type":"horizons-trial","trial_index":9,"time_elapsed":467484,"internal_node_id":"0.0-5.0"},{"horizon":5,"rewards_L":[20,39,38,42,30],"rewards_R":[52,41,43,48,48],"key_presses":["arrowright","arrowleft","arrowleft","arrowright","arrowright"],"response_times":[811,710,774,993,2283],"outcomes":[52,39,38,48,48],"screen_resolution":1,"trial_type":"horizons-trial","trial_index":10,"time_elapsed":518578,"internal_node_id":"0.0-6.0"},{"horizon":5,"rewards_L":[24,26,40,26,23],"rewards_R":[35,45,70,36,43],"key_presses":["arrowleft","arrowright","arrowright","arrowleft","arrowright"],"response_times":[1004,806,320,671,2809],"outcomes":[24,45,70,26,43],"screen_resolution":1,"trial_type":"horizons-trial","trial_index":11,"time_elapsed":525906,"internal_node_id":"0.0-7.0"},{"horizon":10,"rewards_L":[23,39,46,36,28,44,44,32,38,30],"rewards_R":[39,51,55,37,37,31,32,39,36,49],"key_presses":["arrowright","arrowleft","arrowleft","arrowright","arrowleft","arrowleft","arrowright","arrowleft","arrowleft","arrowleft"],"response_times":[824,720,407,792,3594,1340,878,5227,1958,696],"outcomes":[39,39,46,37,28,44,32,32,38,30],"screen_resolution":1,"trial_type":"horizons-trial","trial_index":12,"time_elapsed":543380,"internal_node_id":"0.0-8.0"},{"horizon":5,"rewards_L":[22,28,28,29,42],"rewards_R":[39,44,41,39,31],"key_presses":["arrowright","arrowright","arrowright","arrowleft","arrowright"],"response_times":[752,431,449,712,3455],"outcomes":[39,44,41,29,31],"screen_resolution":1,"trial_type":"horizons-trial","trial_index":13,"time_elapsed":550292,"internal_node_id":"0.0-9.0"},{"horizon":10,"rewards_L":[63,65,53,63,70,55,79,83,67,71],"rewards_R":[70,53,58,62,69,70,60,67,71,55],"key_presses":["arrowright","arrowleft","arrowright","arrowleft","arrowleft","arrowright","arrowright","arrowleft","arrowleft","arrowright"],"response_times":[738,455,395,434,4068,1290,2102,1237,1066,720],"outcomes":[70,65,58,63,70,70,60,83,67,55],"screen_resolution":1,"trial_type":"horizons-trial","trial_index":14,"time_elapsed":563974,"internal_node_id":"0.0-10.0"},{"horizon":10,"rewards_L":[56,60,54,54,42,53,43,51,46,36],"rewards_R":[54,40,44,28,28,48,32,39,42,39],"key_presses":["arrowright","arrowleft","arrowright","arrowright","arrowleft","arrowright","arrowleft","arrowleft","arrowright","arrowleft"],"response_times":[834,578,1176,781,2859,1204,895,1294,1273,798],"outcomes":[54,60,44,28,42,48,43,51,42,36],"screen_resolution":1,"trial_type":"horizons-trial","trial_index":15,"time_elapsed":576600,"internal_node_id":"0.0-11.0"},{"horizon":10,"rewards_L":[49,59,36,68,53,63,62,44,61,45],"rewards_R":[48,50,34,34,40,44,26,36,36,35],"key_presses":["arrowleft","arrowleft","arrowleft","arrowright","arrowleft","arrowright","arrowleft","arrowleft","arrowright","arrowright"],"response_times":[1907,534,696,692,1581,1039,960,1015,735,3734],"outcomes":[49,59,36,34,53,44,62,44,36,35],"screen_resolution":1,"trial_type":"horizons-trial","trial_index":16,"time_elapsed":590396,"internal_node_id":"0.0-12.0"},{"horizon":10,"rewards_L":[49,28,40,37,55,60,39,44,34,37],"rewards_R":[39,42,48,34,41,42,40,51,54,41],"key_presses":["arrowright","arrowleft","arrowright","arrowright","arrowright","arrowleft","arrowright","arrowright","arrowleft","arrowleft"],"response_times":[1100,441,508,600,2201,3423,6700,1800,925,1234],"outcomes":[39,28,48,34,41,60,40,51,34,37],"screen_resolution":1,"trial_type":"horizons-trial","trial_index":17,"time_elapsed":610131,"internal_node_id":"0.0-13.0"},{"horizon":10,"rewards_L":[62,53,78,77,57,81,61,65,65,75],"rewards_R":[38,38,45,48,35,36,46,58,46,35],"key_presses":["arrowleft","arrowleft","arrowright","arrowright","arrowleft","arrowright","arrowright","arrowleft","arrowright","arrowleft"],"response_times":[4198,609,467,368,1938,1749,2420,1426,2238,1982],"outcomes":[62,53,45,48,57,36,46,65,46,75],"screen_resolution":1,"trial_type":"horizons-trial","trial_index":18,"time_elapsed":629437,"internal_node_id":"0.0-14.0"},{"horizon":5,"rewards_L":[63,64,84,70,59],"rewards_R":[43,55,37,51,43],"key_presses":["arrowright","arrowleft","arrowleft","arrowright","arrowleft"],"response_times":[721,795,460,525,1689],"outcomes":[43,64,84,51,59],"screen_resolution":1,"trial_type":"horizons-trial","trial_index":19,"time_elapsed":634477,"internal_node_id":"0.0-15.0"},{"horizon":10,"rewards_L":[38,42,41,27,35,36,38,38,40,46],"rewards_R":[38,47,40,62,56,47,50,39,45,44],"key_presses":["arrowleft","arrowright","arrowleft","arrowleft","arrowright","arrowright","arrowleft","arrowleft","arrowright","arrowright"],"response_times":[1103,391,432,399,1909,2384,740,1109,829,1055],"outcomes":[38,47,41,27,56,47,38,38,45,44],"screen_resolution":1,"trial_type":"horizons-trial","trial_index":20,"time_elapsed":645778,"internal_node_id":"0.0-16.0"},{"horizon":10,"rewards_L":[35,48,42,50,35,26,37,28,13,33],"rewards_R":[35,51,51,49,52,34,44,31,49,53],"key_presses":["arrowleft","arrowright","arrowright","arrowleft","arrowright","arrowright","arrowleft","arrowright","arrowleft","arrowright"],"response_times":[763,531,442,453,3992,17888,9203,17888,933,1386],"outcomes":[35,51,51,50,52,34,37,31,13,53],"screen_resolution":1,"trial_type":"horizons-trial","trial_index":21,"time_elapsed":701610,"internal_node_id":"0.0-17.0"},{"horizon":10,"rewards_L":[53,37,41,45,28,35,16,38,46,25],"rewards_R":[50,63,47,62,59,55,62,54,62,56],"key_presses":["arrowright","arrowleft","arrowleft","arrowleft","arrowright","arrowright","arrowleft","arrowright","arrowright","arrowright"],"response_times":[660,530,372,623,4930,9224,2538,1203,1262,795],"outcomes":[50,37,41,45,59,55,16,54,62,56],"screen_resolution":1,"trial_type":"horizons-trial","trial_index":22,"time_elapsed":724493,"internal_node_id":"0.0-18.0"},{"horizon":10,"rewards_L":[58,21,36,25,36,32,36,46,49,31],"rewards_R":[40,46,51,47,34,34,57,54,36,54],"key_presses":["arrowleft","arrowright","arrowleft","arrowright","arrowleft","arrowright","arrowright","arrowleft","arrowright","arrowleft"],"response_times":[687,433,377,366,7224,1581,1429,932,1006,729],"outcomes":[58,46,36,47,36,34,57,46,36,31],"screen_resolution":1,"trial_type":"horizons-trial","trial_index":23,"time_elapsed":740188,"internal_node_id":"0.0-19.0"},{"horizon":10,"rewards_L":[56,53,60,65,55,67,59,74,41,49],"rewards_R":[67,63,72,51,54,75,67,57,63,60],"key_presses":["arrowright","arrowright","arrowright","arrowleft","arrowright","arrowleft","arrowleft","arrowright","arrowleft","arrowright"],"response_times":[921,492,480,499,2393,1205,1844,1023,975,746],"outcomes":[67,63,72,65,54,67,59,57,41,60],"screen_resolution":1,"trial_type":"horizons-trial","trial_index":24,"time_elapsed":751836,"internal_node_id":"0.0-20.0"},{"horizon":10,"rewards_L":[42,64,65,49,41,45,49,49,44,49],"rewards_R":[37,51,30,45,36,34,44,43,39,32],"key_presses":["arrowleft","arrowleft","arrowright","arrowright","arrowleft","arrowright","arrowleft","arrowleft","arrowright","arrowleft"],"response_times":[797,441,785,2067,5448,1138,2217,776,1180,628],"outcomes":[42,64,30,45,41,34,49,49,39,49],"screen_resolution":1,"trial_type":"horizons-trial","trial_index":25,"time_elapsed":768211,"internal_node_id":"0.0-21.0"},{"horizon":10,"rewards_L":[63,73,62,54,65,62,70,60,66,75],"rewards_R":[33,37,25,18,27,42,28,20,41,40],"key_presses":["arrowleft","arrowleft","arrowleft","arrowright","arrowleft","arrowright","arrowleft","arrowleft","arrowright","arrowleft"],"response_times":[947,1007,825,492,2562,1779,856,1503,780,575],"outcomes":[63,73,62,18,65,42,70,60,41,75],"screen_resolution":1,"trial_type":"horizons-trial","trial_index":26,"time_elapsed":780855,"internal_node_id":"0.0-22.0"},{"horizon":10,"rewards_L":[46,40,36,42,35,30,39,48,53,58],"rewards_R":[38,49,41,44,46,46,51,47,28,22],"key_presses":["arrowright","arrowleft","arrowright","arrowleft","arrowleft","arrowright","arrowright","arrowleft","arrowright","arrowleft"],"response_times":[525,408,342,427,3415,706,1004,1384,645,661],"outcomes":[38,40,41,42,35,46,51,48,28,58],"screen_resolution":1,"trial_type":"horizons-trial","trial_index":27,"time_elapsed":791107,"internal_node_id":"0.0-23.0"},{"horizon":5,"rewards_L":[27,40,39,33,48],"rewards_R":[55,52,64,53,69],"key_presses":["arrowright","arrowright","arrowright","arrowleft","arrowright"],"response_times":[916,408,343,472,5231],"outcomes":[55,52,64,33,69],"screen_resolution":1,"trial_type":"horizons-trial","trial_index":28,"time_elapsed":799416,"internal_node_id":"0.0-24.0"},{"horizon":10,"rewards_L":[55,64,52,56,56,68,47,60,61,67],"rewards_R":[74,66,74,76,67,73,73,77,73,72],"key_presses":["arrowright","arrowright","arrowleft","arrowright","arrowright","arrowleft","arrowleft","arrowright","arrowleft","arrowright"],"response_times":[552,354,507,460,1423,1217,1832,954,1542,1337],"outcomes":[74,66,52,76,67,68,47,77,61,72],"screen_resolution":1,"trial_type":"horizons-trial","trial_index":29,"time_elapsed":810568,"internal_node_id":"0.0-25.0"},{"horizon":5,"rewards_L":[21,22,13,26,15],"rewards_R":[46,42,32,29,46],"key_presses":["arrowright","arrowright","arrowright","arrowleft","arrowleft"],"response_times":[664,396,383,481,1815],"outcomes":[46,42,32,26,15],"screen_resolution":1,"trial_type":"horizons-trial","trial_index":30,"time_elapsed":815162,"internal_node_id":"0.0-26.0"},{"horizon":10,"rewards_L":[51,57,43,50,39,53,51,56,36,46],"rewards_R":[43,39,36,37,32,34,53,37,42,58],"key_presses":["arrowleft","arrowleft","arrowright","arrowleft","arrowright","arrowleft","arrowleft","arrowright","arrowleft","arrowright"],"response_times":[1203,396,429,943,1628,1087,1167,882,646,734],"outcomes":[51,57,36,50,32,53,51,37,36,58],"screen_resolution":1,"trial_type":"horizons-trial","trial_index":31,"time_elapsed":824972,"internal_node_id":"0.0-27.0"},{"horizon":5,"rewards_L":[50,46,44,44,25],"rewards_R":[50,53,56,58,72],"key_presses":["arrowright","arrowright","arrowleft","arrowleft","arrowright"],"response_times":[580,521,435,410,1871],"outcomes":[50,53,44,44,72],"screen_resolution":1,"trial_type":"horizons-trial","trial_index":32,"time_elapsed":829531,"internal_node_id":"0.0-28.0"},{"horizon":5,"rewards_L":[36,33,48,55,46],"rewards_R":[15,2,15,6,23],"key_presses":["arrowright","arrowleft","arrowleft","arrowright","arrowleft"],"response_times":[1208,461,379,421,1185],"outcomes":[15,33,48,6,46],"screen_resolution":1,"trial_type":"horizons-trial","trial_index":33,"time_elapsed":833859,"internal_node_id":"0.0-29.0"},{"horizon":10,"rewards_L":[11,24,31,25,13,19,22,43,7,26],"rewards_R":[41,40,59,33,40,38,59,34,32,52],"key_presses":["arrowleft","arrowright","arrowright","arrowleft","arrowright","arrowleft","arrowright","arrowright","arrowright","arrowright"],"response_times":[879,457,436,425,1543,947,830,938,1204,534],"outcomes":[11,40,59,25,40,19,59,34,32,52],"screen_resolution":1,"trial_type":"horizons-trial","trial_index":34,"time_elapsed":842762,"internal_node_id":"0.0-30.0"},{"horizon":10,"rewards_L":[39,18,24,33,38,17,24,46,39,43],"rewards_R":[35,44,43,49,27,46,44,45,36,40],"key_presses":["arrowright","arrowright","arrowright","arrowleft","arrowright","arrowleft","arrowright","arrowright","arrowright","arrowright"],"response_times":[618,353,356,626,1065,642,1182,526,458,1364],"outcomes":[35,44,43,33,27,17,44,45,36,40],"screen_resolution":1,"trial_type":"horizons-trial","trial_index":35,"time_elapsed":850634,"internal_node_id":"0.0-31.0"},{"horizon":5,"rewards_L":[64,63,55,43,54],"rewards_R":[49,56,55,62,67],"key_presses":["arrowright","arrowright","arrowleft","arrowleft","arrowright"],"response_times":[527,324,951,396,3741],"outcomes":[49,56,55,43,67],"screen_resolution":1,"trial_type":"horizons-trial","trial_index":36,"time_elapsed":857473,"internal_node_id":"0.0-32.0"},{"horizon":10,"rewards_L":[30,36,39,39,36,43,50,36,34,33],"rewards_R":[46,36,48,31,29,39,27,43,29,32],"key_presses":["arrowleft","arrowright","arrowright","arrowleft","arrowright","arrowleft","arrowleft","arrowleft","arrowright","arrowleft"],"response_times":[657,428,402,447,2809,885,1063,864,559,669],"outcomes":[30,36,48,39,29,43,50,36,29,33],"screen_resolution":1,"trial_type":"horizons-trial","trial_index":37,"time_elapsed":866971,"internal_node_id":"0.0-33.0"},{"horizon":5,"rewards_L":[43,42,38,31,39],"rewards_R":[12,28,20,18,9],"key_presses":["arrowleft","arrowright","arrowleft","arrowright","arrowleft"],"response_times":[969,424,765,563,1846],"outcomes":[43,28,38,18,39],"screen_resolution":1,"trial_type":"horizons-trial","trial_index":38,"time_elapsed":872607,"internal_node_id":"0.0-34.0"},{"horizon":5,"rewards_L":[37,37,48,44,61],"rewards_R":[31,35,28,34,36],"key_presses":["arrowright","arrowleft","arrowleft","arrowright","arrowleft"],"response_times":[722,627,391,542,1352],"outcomes":[31,37,48,34,61],"screen_resolution":1,"trial_type":"horizons-trial","trial_index":39,"time_elapsed":877165,"internal_node_id":"0.0-35.0"},{"horizon":10,"rewards_L":[45,55,47,43,38,36,28,38,44,34],"rewards_R":[66,64,60,38,74,76,60,66,48,57],"key_presses":["arrowright","arrowright","arrowright","arrowleft","arrowleft","arrowright","arrowleft","arrowright","arrowright","arrowleft"],"response_times":[563,417,300,768,303,1805,1322,748,576,622],"outcomes":[66,64,60,43,38,76,28,66,48,34],"screen_resolution":1,"trial_type":"horizons-trial","trial_index":40,"time_elapsed":885307,"internal_node_id":"0.0-36.0"},{"horizon":10,"rewards_L":[27,39,43,32,20,43,32,44,35,32],"rewards_R":[10,9,9,12,0,4,1,2,17,9],"key_presses":["arrowright","arrowleft","arrowright","arrowleft","arrowleft","arrowleft","arrowleft","arrowright","arrowleft","arrowleft"],"response_times":[506,472,419,437,1301,1344,1205,1032,538,520],"outcomes":[10,39,9,32,20,43,32,2,35,32],"screen_resolution":1,"trial_type":"horizons-trial","trial_index":41,"time_elapsed":893685,"internal_node_id":"0.0-37.0"},{"horizon":10,"rewards_L":[40,34,45,43,49,53,38,50,32,42],"rewards_R":[28,36,33,42,24,36,43,9,23,30],"key_presses":["arrowright","arrowleft","arrowright","arrowleft","arrowleft","arrowright","arrowleft","arrowleft","arrowright","arrowleft"],"response_times":[672,317,315,323,1382,747,807,1037,1511,567],"outcomes":[28,34,33,43,49,36,38,50,23,42],"screen_resolution":1,"trial_type":"horizons-trial","trial_index":42,"time_elapsed":902173,"internal_node_id":"0.0-38.0"},{"horizon":10,"rewards_L":[39,46,41,36,35,37,41,30,49,39],"rewards_R":[51,44,40,32,37,37,44,53,34,51],"key_presses":["arrowright","arrowleft","arrowleft","arrowleft","arrowright","arrowleft","arrowright","arrowright","arrowleft","arrowleft"],"response_times":[525,371,417,701,2441,646,1082,959,603,467],"outcomes":[51,46,41,36,37,37,44,53,49,39],"screen_resolution":1,"trial_type":"horizons-trial","trial_index":43,"time_elapsed":911073,"internal_node_id":"0.0-39.0"},{"horizon":10,"rewards_L":[37,33,44,41,58,49,39,45,50,34],"rewards_R":[25,34,37,40,38,40,36,49,34,36],"key_presses":["arrowleft","arrowright","arrowright","arrowright","arrowleft","arrowright","arrowleft","arrowleft","arrowright","arrowright"],"response_times":[605,788,487,565,1835,1469,749,842,327,1189],"outcomes":[37,34,37,40,58,40,39,45,34,36],"screen_resolution":1,"trial_type":"horizons-trial","trial_index":44,"time_elapsed":920636,"internal_node_id":"0.0-40.0"},{"horizon":5,"rewards_L":[79,80,86,90,87],"rewards_R":[52,75,55,61,59],"key_presses":["arrowleft","arrowright","arrowleft","arrowright","arrowright"],"response_times":[635,381,377,674,1312],"outcomes":[79,75,86,61,59],"screen_resolution":1,"trial_type":"horizons-trial","trial_index":45,"time_elapsed":1039785,"internal_node_id":"0.0-41.0"},{"horizon":10,"rewards_L":[46,45,40,44,44,33,38,34,51,34],"rewards_R":[48,56,52,58,61,49,59,59,42,49],"key_presses":["arrowright","arrowleft","arrowright","arrowleft","arrowright","arrowright","arrowleft","arrowright","arrowright","arrowleft"],"response_times":[630,1385,327,446,1853,1192,752,1560,745,774],"outcomes":[48,45,52,44,61,49,38,59,42,34],"screen_resolution":1,"trial_type":"horizons-trial","trial_index":46,"time_elapsed":1050148,"internal_node_id":"0.0-42.0"},{"horizon":10,"rewards_L":[70,85,84,83,69,79,91,77,83,93],"rewards_R":[54,73,61,58,63,60,66,57,56,66],"key_presses":["arrowleft","arrowright","arrowright","arrowleft","arrowleft","arrowright","arrowleft","arrowright","arrowleft","arrowleft"],"response_times":[761,283,617,416,1313,1663,1778,1358,701,451],"outcomes":[70,73,61,83,69,60,91,57,83,93],"screen_resolution":1,"trial_type":"horizons-trial","trial_index":47,"time_elapsed":1061120,"internal_node_id":"0.0-43.0"},{"horizon":5,"rewards_L":[57,60,61,80,48],"rewards_R":[57,65,57,75,60],"key_presses":["arrowleft","arrowright","arrowright","arrowleft","arrowleft"],"response_times":[739,353,453,414,1271],"outcomes":[57,65,57,80,48],"screen_resolution":1,"trial_type":"horizons-trial","trial_index":48,"time_elapsed":1065575,"internal_node_id":"0.0-44.0"},{"horizon":5,"rewards_L":[40,34,32,41,45],"rewards_R":[35,40,40,43,36],"key_presses":["arrowleft","arrowleft","arrowright","arrowleft","arrowleft"],"response_times":[798,371,559,384,1642],"outcomes":[40,34,40,41,45],"screen_resolution":1,"trial_type":"horizons-trial","trial_index":49,"time_elapsed":1070048,"internal_node_id":"0.0-45.0"},{"horizon":5,"rewards_L":[56,55,52,35,47],"rewards_R":[27,36,24,36,48],"key_presses":["arrowright","arrowleft","arrowright","arrowleft","arrowleft"],"response_times":[617,299,283,542,4138],"outcomes":[27,55,24,35,47],"screen_resolution":1,"trial_type":"horizons-trial","trial_index":50,"time_elapsed":1076496,"internal_node_id":"0.0-46.0"},{"horizon":10,"rewards_L":[66,54,63,64,61,51,65,50,63,63],"rewards_R":[79,69,74,86,71,86,67,72,77,73],"key_presses":["arrowright","arrowright","arrowleft","arrowright","arrowright","arrowright","arrowright","arrowright","arrowright","arrowright"],"response_times":[626,326,348,338,923,3389,1336,1901,842,765],"outcomes":[79,69,63,86,71,86,67,72,77,73],"screen_resolution":1,"trial_type":"horizons-trial","trial_index":51,"time_elapsed":1088020,"internal_node_id":"0.0-47.0"},{"horizon":5,"rewards_L":[29,35,28,52,30],"rewards_R":[70,64,62,52,73],"key_presses":["arrowright","arrowleft","arrowleft","arrowleft","arrowright"],"response_times":[538,905,2751,493,2399],"outcomes":[70,35,28,52,73],"screen_resolution":1,"trial_type":"horizons-trial","trial_index":52,"time_elapsed":1095878,"internal_node_id":"0.0-48.0"},{"horizon":10,"rewards_L":[34,40,33,19,24,30,27,28,32,35],"rewards_R":[43,44,36,38,52,53,45,39,31,26],"key_presses":["arrowright","arrowleft","arrowright","arrowleft","arrowright","arrowright","arrowright","arrowright","arrowright","arrowright"],"response_times":[529,361,469,422,2887,809,595,531,776,439],"outcomes":[43,40,36,19,52,53,45,39,31,26],"screen_resolution":1,"trial_type":"horizons-trial","trial_index":53,"time_elapsed":1104256,"internal_node_id":"0.0-49.0"},{"horizon":10,"rewards_L":[42,34,40,44,55,49,54,31,56,55],"rewards_R":[36,52,42,43,42,51,32,36,41,30],"key_presses":["arrowleft","arrowright","arrowleft","arrowright","arrowright","arrowright","arrowright","arrowleft","arrowright","arrowright"],"response_times":[655,559,471,929,2345,425,1765,1003,8431,1371],"outcomes":[42,52,40,43,42,51,32,31,41,30],"screen_resolution":1,"trial_type":"horizons-trial","trial_index":54,"time_elapsed":1122889,"internal_node_id":"0.0-50.0"},{"horizon":10,"rewards_L":[35,50,48,46,48,53,54,33,50,45],"rewards_R":[44,44,47,49,55,40,34,32,29,42],"key_presses":["arrowright","arrowright","arrowleft","arrowleft","arrowright","arrowright","arrowleft","arrowright","arrowleft","arrowleft"],"response_times":[655,451,517,687,513,7386,1722,2786,813,705],"outcomes":[44,44,48,46,55,40,54,32,50,45],"screen_resolution":1,"trial_type":"horizons-trial","trial_index":55,"time_elapsed":1139694,"internal_node_id":"0.0-51.0"},{"horizon":5,"rewards_L":[82,90,83,76,91],"rewards_R":[68,56,52,68,65],"key_presses":["arrowright","arrowleft","arrowleft","arrowright","arrowleft"],"response_times":[551,376,515,392,1325],"outcomes":[68,90,83,68,91],"screen_resolution":1,"trial_type":"horizons-trial","trial_index":56,"time_elapsed":1143485,"internal_node_id":"0.0-52.0"},{"horizon":5,"rewards_L":[71,68,63,45,48],"rewards_R":[59,45,72,69,55],"key_presses":["arrowright","arrowright","arrowleft","arrowleft","arrowleft"],"response_times":[583,366,325,490,1688],"outcomes":[59,45,63,45,48],"screen_resolution":1,"trial_type":"horizons-trial","trial_index":57,"time_elapsed":1147609,"internal_node_id":"0.0-53.0"},{"horizon":5,"rewards_L":[49,46,32,36,29],"rewards_R":[75,71,59,84,60],"key_presses":["arrowleft","arrowright","arrowleft","arrowright","arrowright"],"response_times":[709,285,309,671,1288],"outcomes":[49,71,32,84,60],"screen_resolution":1,"trial_type":"horizons-trial","trial_index":58,"time_elapsed":1151618,"internal_node_id":"0.0-54.0"},{"horizon":5,"rewards_L":[59,67,67,60,50],"rewards_R":[36,61,39,30,45],"key_presses":["arrowleft","arrowright","arrowright","arrowright","arrowleft"],"response_times":[548,472,618,672,1405],"outcomes":[59,61,39,30,50],"screen_resolution":1,"trial_type":"horizons-trial","trial_index":59,"time_elapsed":1156265,"internal_node_id":"0.0-55.0"},{"horizon":10,"rewards_L":[75,67,63,55,51,62,41,55,52,57],"rewards_R":[37,38,48,26,37,12,54,46,31,26],"key_presses":["arrowleft","arrowright","arrowleft","arrowright","arrowleft","arrowleft","arrowleft","arrowleft","arrowleft","arrowleft"],"response_times":[775,371,353,380,1316,4161,1109,501,416,294],"outcomes":[75,38,63,26,51,62,41,55,52,57],"screen_resolution":1,"trial_type":"horizons-trial","trial_index":60,"time_elapsed":1166888,"internal_node_id":"0.0-56.0"},{"horizon":10,"rewards_L":[22,7,18,20,20,23,17,18,16,14],"rewards_R":[29,47,37,34,57,37,20,28,23,48],"key_presses":["arrowright","arrowleft","arrowleft","arrowleft","arrowright","arrowright","arrowleft","arrowright","arrowright","arrowright"],"response_times":[2429,585,508,591,444,2264,1193,611,547,229],"outcomes":[29,7,18,20,57,37,17,28,23,48],"screen_resolution":1,"trial_type":"horizons-trial","trial_index":61,"time_elapsed":1176803,"internal_node_id":"0.0-57.0"},{"horizon":5,"rewards_L":[63,55,55,51,54],"rewards_R":[51,45,39,43,54],"key_presses":["arrowleft","arrowright","arrowright","arrowright","arrowleft"],"response_times":[1358,378,445,711,1884],"outcomes":[63,45,39,43,54],"screen_resolution":1,"trial_type":"horizons-trial","trial_index":62,"time_elapsed":1182238,"internal_node_id":"0.0-58.0"},{"horizon":10,"rewards_L":[29,30,22,31,32,39,29,32,33,29],"rewards_R":[49,38,25,41,36,38,41,46,36,43],"key_presses":["arrowleft","arrowright","arrowleft","arrowright","arrowright","arrowright","arrowright","arrowright","arrowright","arrowright"],"response_times":[802,296,308,386,1966,1938,675,550,310,189],"outcomes":[29,38,22,41,36,38,41,46,36,43],"screen_resolution":1,"trial_type":"horizons-trial","trial_index":63,"time_elapsed":1190972,"internal_node_id":"0.0-59.0"},{"horizon":10,"rewards_L":[63,73,71,75,56,58,69,74,61,53],"rewards_R":[52,56,57,51,60,66,59,54,65,61],"key_presses":["arrowright","arrowleft","arrowright","arrowright","arrowleft","arrowright","arrowright","arrowright","arrowright","arrowright"],"response_times":[651,892,1778,486,1260,1553,1095,1423,478,245],"outcomes":[52,73,57,51,56,66,59,54,65,61],"screen_resolution":1,"trial_type":"horizons-trial","trial_index":64,"time_elapsed":1201415,"internal_node_id":"0.0-60.0"},{"horizon":10,"rewards_L":[49,29,40,24,48,49,43,48,30,45],"rewards_R":[24,21,49,29,38,32,38,27,23,15],"key_presses":["arrowleft","arrowleft","arrowright","arrowright","arrowright","arrowleft","arrowleft","arrowleft","arrowleft","arrowleft"],"response_times":[591,456,392,435,4667,880,738,655,504,198],"outcomes":[49,29,49,29,38,49,43,48,30,45],"screen_resolution":1,"trial_type":"horizons-trial","trial_index":65,"time_elapsed":1211651,"internal_node_id":"0.0-61.0"},{"horizon":5,"rewards_L":[54,37,49,54,48],"rewards_R":[65,72,50,50,60],"key_presses":["arrowright","arrowright","arrowright","arrowleft","arrowright"],"response_times":[532,389,391,435,1461],"outcomes":[65,72,50,54,60],"screen_resolution":1,"trial_type":"horizons-trial","trial_index":66,"time_elapsed":1215589,"internal_node_id":"0.0-62.0"},{"horizon":10,"rewards_L":[36,32,37,28,20,30,10,30,31,10],"rewards_R":[50,45,47,24,45,47,37,49,34,37],"key_presses":["arrowright","arrowleft","arrowleft","arrowleft","arrowright","arrowright","arrowright","arrowleft","arrowright","arrowright"],"response_times":[488,285,1909,490,13709,2357,750,877,646,551],"outcomes":[50,32,37,28,45,47,37,30,34,37],"screen_resolution":1,"trial_type":"horizons-trial","trial_index":67,"time_elapsed":1239265,"internal_node_id":"0.0-63.0"},{"horizon":10,"rewards_L":[35,23,28,25,21,35,20,12,24,31],"rewards_R":[37,30,17,53,45,38,47,39,36,19],"key_presses":["arrowleft","arrowleft","arrowright","arrowright","arrowright","arrowleft","arrowleft","arrowright","arrowright","arrowright"],"response_times":[795,653,1063,332,1043,964,1185,595,410,188],"outcomes":[35,23,17,53,45,35,20,39,36,19],"screen_resolution":1,"trial_type":"horizons-trial","trial_index":68,"time_elapsed":1247665,"internal_node_id":"0.0-64.0"},{"horizon":5,"rewards_L":[23,20,23,21,34],"rewards_R":[32,47,47,45,43],"key_presses":["arrowright","arrowleft","arrowright","arrowleft","arrowright"],"response_times":[568,358,596,559,3440],"outcomes":[32,20,47,21,43],"screen_resolution":1,"trial_type":"horizons-trial","trial_index":69,"time_elapsed":1257905,"internal_node_id":"0.0-65.0"},{"horizon":5,"rewards_L":[57,67,54,69,57],"rewards_R":[63,60,52,50,60],"key_presses":["arrowleft","arrowleft","arrowright","arrowleft","arrowleft"],"response_times":[759,456,374,742,1391],"outcomes":[57,67,52,69,57],"screen_resolution":1,"trial_type":"horizons-trial","trial_index":70,"time_elapsed":1279755,"internal_node_id":"0.0-66.0"},{"horizon":5,"rewards_L":[50,41,41,59,57],"rewards_R":[50,50,29,46,37],"key_presses":["arrowleft","arrowright","arrowleft","arrowright","arrowright"],"response_times":[733,577,373,704,1921],"outcomes":[50,50,41,46,37],"screen_resolution":1,"trial_type":"horizons-trial","trial_index":71,"time_elapsed":1284855,"internal_node_id":"0.0-67.0"},{"horizon":10,"rewards_L":[59,59,56,61,59,59,65,48,48,42],"rewards_R":[41,41,51,48,45,49,31,41,41,46],"key_presses":["arrowleft","arrowleft","arrowright","arrowleft","arrowleft","arrowleft","arrowleft","arrowleft","arrowleft","arrowleft"],"response_times":[620,333,395,495,2516,683,762,642,1274,580],"outcomes":[59,59,51,61,59,59,65,48,48,42],"screen_resolution":1,"trial_type":"horizons-trial","trial_index":72,"time_elapsed":1293810,"internal_node_id":"0.0-68.0"},{"horizon":10,"rewards_L":[42,45,28,19,20,33,39,16,42,16],"rewards_R":[41,40,43,39,37,51,36,36,39,36],"key_presses":["arrowright","arrowright","arrowright","arrowleft","arrowright","arrowright","arrowright","arrowright","arrowright","arrowright"],"response_times":[630,471,577,377,1128,1302,1002,815,425,299],"outcomes":[41,40,43,19,37,51,36,36,39,36],"screen_resolution":1,"trial_type":"horizons-trial","trial_index":73,"time_elapsed":1301376,"internal_node_id":"0.0-69.0"},{"horizon":10,"rewards_L":[67,65,57,73,60,57,62,58,48,63],"rewards_R":[61,51,49,48,47,47,54,58,53,49],"key_presses":["arrowleft","arrowright","arrowright","arrowright","arrowleft","arrowleft","arrowleft","arrowleft","arrowleft","arrowleft"],"response_times":[608,431,389,911,2138,1295,979,711,622,346],"outcomes":[67,51,49,48,60,57,62,58,48,63],"screen_resolution":1,"trial_type":"horizons-trial","trial_index":74,"time_elapsed":1310767,"internal_node_id":"0.0-70.0"},{"horizon":10,"rewards_L":[65,70,66,58,74,67,71,57,55,60],"rewards_R":[58,61,51,63,60,50,38,65,68,65],"key_presses":["arrowleft","arrowleft","arrowleft","arrowright","arrowleft","arrowleft","arrowleft","arrowleft","arrowleft","arrowleft"],"response_times":[680,622,394,414,2337,635,531,440,275,487],"outcomes":[65,70,66,63,74,67,71,57,55,60],"screen_resolution":1,"trial_type":"horizons-trial","trial_index":75,"time_elapsed":1318346,"internal_node_id":"0.0-71.0"},{"horizon":10,"rewards_L":[68,57,70,69,43,46,62,67,70,50],"rewards_R":[41,55,66,52,59,55,52,54,56,47],"key_presses":["arrowleft","arrowright","arrowleft","arrowright","arrowleft","arrowright","arrowright","arrowleft","arrowleft","arrowleft"],"response_times":[632,492,460,498,1753,1266,912,1241,573,392],"outcomes":[68,55,70,52,43,55,52,67,70,50],"screen_resolution":1,"trial_type":"horizons-trial","trial_index":76,"time_elapsed":1327989,"internal_node_id":"0.0-72.0"},{"horizon":10,"rewards_L":[45,49,49,38,41,51,40,41,54,51],"rewards_R":[66,56,53,62,64,47,62,58,70,59],"key_presses":["arrowright","arrowleft","arrowleft","arrowleft","arrowright","arrowright","arrowleft","arrowright","arrowright","arrowright"],"response_times":[1234,381,464,476,1515,1283,700,580,522,218],"outcomes":[66,49,49,38,64,47,40,58,70,59],"screen_resolution":1,"trial_type":"horizons-trial","trial_index":77,"time_elapsed":1336376,"internal_node_id":"0.0-73.0"},{"horizon":5,"rewards_L":[21,32,54,25,32],"rewards_R":[59,60,81,59,60],"key_presses":["arrowright","arrowright","arrowright","arrowleft","arrowright"],"response_times":[516,475,480,563,1174],"outcomes":[59,60,81,25,60],"screen_resolution":1,"trial_type":"horizons-trial","trial_index":78,"time_elapsed":1340170,"internal_node_id":"0.0-74.0"},{"horizon":5,"rewards_L":[23,24,38,20,26],"rewards_R":[67,43,61,52,50],"key_presses":["arrowleft","arrowright","arrowleft","arrowright","arrowright"],"response_times":[989,382,691,638,1486],"outcomes":[23,43,38,52,50],"screen_resolution":1,"trial_type":"horizons-trial","trial_index":79,"time_elapsed":1344956,"internal_node_id":"0.0-75.0"},{"horizon":5,"rewards_L":[51,56,61,63,62],"rewards_R":[41,48,56,42,44],"key_presses":["arrowleft","arrowright","arrowright","arrowleft","arrowleft"],"response_times":[746,431,410,717,1643],"outcomes":[51,48,56,63,62],"screen_resolution":1,"trial_type":"horizons-trial","trial_index":80,"time_elapsed":1349706,"internal_node_id":"0.0-76.0"},{"horizon":5,"rewards_L":[52,52,65,66,51],"rewards_R":[84,70,60,74,82],"key_presses":["arrowleft","arrowright","arrowleft","arrowright","arrowright"],"response_times":[991,420,425,484,1018],"outcomes":[52,70,65,74,82],"screen_resolution":1,"trial_type":"horizons-trial","trial_index":81,"time_elapsed":1353708,"internal_node_id":"0.0-77.0"},{"horizon":5,"rewards_L":[37,30,36,47,43],"rewards_R":[37,38,35,34,25],"key_presses":["arrowleft","arrowright","arrowright","arrowright","arrowright"],"response_times":[2338,372,486,481,2773],"outcomes":[37,38,35,34,25],"screen_resolution":1,"trial_type":"horizons-trial","trial_index":82,"time_elapsed":1360931,"internal_node_id":"0.0-78.0"},{"horizon":10,"rewards_L":[46,47,42,50,47,39,37,48,39,45],"rewards_R":[40,57,34,39,32,28,36,28,26,33],"key_presses":["arrowleft","arrowleft","arrowleft","arrowright","arrowleft","arrowleft","arrowleft","arrowleft","arrowleft","arrowleft"],"response_times":[582,491,415,642,1275,1516,1627,2193,821,516],"outcomes":[46,47,42,39,47,39,37,48,39,45],"screen_resolution":1,"trial_type":"horizons-trial","trial_index":83,"time_elapsed":1372096,"internal_node_id":"0.0-79.0"},{"horizon":5,"rewards_L":[58,39,47,42,43],"rewards_R":[53,42,50,41,60],"key_presses":["arrowright","arrowleft","arrowright","arrowright","arrowright"],"response_times":[549,447,770,404,1347],"outcomes":[53,39,50,41,60],"screen_resolution":1,"trial_type":"horizons-trial","trial_index":84,"time_elapsed":1376575,"internal_node_id":"0.0-80.0"},{"horizon":5,"rewards_L":[33,59,47,30,31],"rewards_R":[25,38,55,18,43],"key_presses":["arrowleft","arrowleft","arrowright","arrowright","arrowleft"],"response_times":[1564,551,785,2336,700],"outcomes":[33,59,55,18,31],"screen_resolution":1,"trial_type":"horizons-trial","trial_index":85,"time_elapsed":1383407,"internal_node_id":"0.0-81.0"},{"horizon":10,"rewards_L":[27,19,21,32,37,18,19,45,36,34],"rewards_R":[58,55,70,80,59,64,45,60,77,66],"key_presses":["arrowright","arrowleft","arrowleft","arrowright","arrowright","arrowright","arrowright","arrowright","arrowright","arrowright"],"response_times":[721,1727,1024,846,1188,1161,503,211,167,356],"outcomes":[58,19,21,80,59,64,45,60,77,66],"screen_resolution":1,"trial_type":"horizons-trial","trial_index":86,"time_elapsed":1391947,"internal_node_id":"0.0-82.0"},{"horizon":5,"rewards_L":[56,49,67,80,57],"rewards_R":[57,53,65,61,48],"key_presses":["arrowleft","arrowleft","arrowleft","arrowright","arrowleft"],"response_times":[675,397,423,593,1186],"outcomes":[56,49,67,61,57],"screen_resolution":1,"trial_type":"horizons-trial","trial_index":87,"time_elapsed":1396112,"internal_node_id":"0.0-83.0"},{"horizon":5,"rewards_L":[44,31,36,46,50],"rewards_R":[39,25,21,34,40],"key_presses":["arrowright","arrowright","arrowleft","arrowleft","arrowleft"],"response_times":[646,623,654,483,1556],"outcomes":[39,25,36,46,50],"screen_resolution":1,"trial_type":"horizons-trial","trial_index":88,"time_elapsed":1400794,"internal_node_id":"0.0-84.0"},{"horizon":5,"rewards_L":[52,34,25,41,41],"rewards_R":[17,19,22,24,27],"key_presses":["arrowleft","arrowleft","arrowleft","arrowright","arrowleft"],"response_times":[633,575,405,1438,1582],"outcomes":[52,34,25,24,41],"screen_resolution":1,"trial_type":"horizons-trial","trial_index":89,"time_elapsed":1406540,"internal_node_id":"0.0-85.0"},{"horizon":5,"rewards_L":[42,48,33,43,48],"rewards_R":[31,18,30,29,26],"key_presses":["arrowleft","arrowright","arrowright","arrowright","arrowleft"],"response_times":[957,418,600,424,1191],"outcomes":[42,18,30,29,48],"screen_resolution":1,"trial_type":"horizons-trial","trial_index":90,"time_elapsed":1410771,"internal_node_id":"0.0-86.0"},{"horizon":5,"rewards_L":[54,40,49,44,36],"rewards_R":[33,45,36,45,51],"key_presses":["arrowright","arrowleft","arrowright","arrowleft","arrowleft"],"response_times":[783,2086,430,608,1175],"outcomes":[33,40,36,44,36],"screen_resolution":1,"trial_type":"horizons-trial","trial_index":91,"time_elapsed":1416773,"internal_node_id":"0.0-87.0"},{"horizon":10,"rewards_L":[36,39,35,40,47,30,39,30,41,40],"rewards_R":[86,68,65,80,66,81,54,67,85,82],"key_presses":["arrowright","arrowleft","arrowleft","arrowright","arrowright","arrowright","arrowright","arrowright","arrowright","arrowright"],"response_times":[696,408,594,485,835,1157,802,585,414,212],"outcomes":[86,39,35,80,66,81,54,67,85,82],"screen_resolution":1,"trial_type":"horizons-trial","trial_index":92,"time_elapsed":1423609,"internal_node_id":"0.0-88.0"},{"horizon":5,"rewards_L":[75,54,64,62,62],"rewards_R":[64,74,80,70,66],"key_presses":["arrowleft","arrowleft","arrowright","arrowright","arrowright"],"response_times":[668,606,468,416,1328],"outcomes":[75,54,80,70,66],"screen_resolution":1,"trial_type":"horizons-trial","trial_index":93,"time_elapsed":1428202,"internal_node_id":"0.0-89.0"},{"horizon":10,"rewards_L":[31,36,29,38,38,39,31,39,46,40],"rewards_R":[3,28,0,13,19,15,21,3,18,0],"key_presses":["arrowleft","arrowright","arrowright","arrowright","arrowleft","arrowright","arrowleft","arrowleft","arrowleft","arrowleft"],"response_times":[945,520,410,816,2009,2184,533,567,198,443],"outcomes":[31,28,0,13,38,15,31,39,46,40],"screen_resolution":1,"trial_type":"horizons-trial","trial_index":94,"time_elapsed":1437384,"internal_node_id":"0.0-90.0"},{"horizon":5,"rewards_L":[54,64,62,65,70],"rewards_R":[35,51,50,47,53],"key_presses":["arrowleft","arrowleft","arrowleft","arrowright","arrowleft"],"response_times":[531,352,650,366,733],"outcomes":[54,64,62,47,70],"screen_resolution":1,"trial_type":"horizons-trial","trial_index":95,"time_elapsed":1440594,"internal_node_id":"0.0-91.0"},{"horizon":5,"rewards_L":[64,60,59,56,44],"rewards_R":[76,82,71,88,70],"key_presses":["arrowright","arrowleft","arrowleft","arrowright","arrowright"],"response_times":[546,430,443,443,837],"outcomes":[76,60,59,88,70],"screen_resolution":1,"trial_type":"horizons-trial","trial_index":96,"time_elapsed":1444354,"internal_node_id":"0.0-92.0"},{"horizon":10,"rewards_L":[49,42,43,36,41,41,30,32,19,32],"rewards_R":[26,23,14,23,11,19,26,29,29,6],"key_presses":["arrowleft","arrowleft","arrowleft","arrowright","arrowleft","arrowleft","arrowleft","arrowleft","arrowleft","arrowleft"],"response_times":[1607,325,246,336,1069,524,403,214,198,175],"outcomes":[49,42,43,23,41,41,30,32,19,32],"screen_resolution":1,"trial_type":"horizons-trial","trial_index":97,"time_elapsed":1450514,"internal_node_id":"0.0-93.0"},{"horizon":5,"rewards_L":[45,52,50,56,70],"rewards_R":[48,31,29,40,24],"key_presses":["arrowleft","arrowleft","arrowright","arrowright","arrowleft"],"response_times":[461,282,466,411,1471],"outcomes":[45,52,29,40,70],"screen_resolution":1,"trial_type":"horizons-trial","trial_index":98,"time_elapsed":1454291,"internal_node_id":"0.0-94.0"},{"horizon":10,"rewards_L":[43,55,68,59,37,56,54,55,54,51],"rewards_R":[57,60,51,61,63,51,53,51,51,62],"key_presses":["arrowleft","arrowright","arrowright","arrowleft","arrowright","arrowright","arrowleft","arrowleft","arrowright","arrowleft"],"response_times":[841,1164,371,360,1783,1455,719,2502,693,821],"outcomes":[43,60,51,59,63,51,54,55,51,51],"screen_resolution":1,"trial_type":"horizons-trial","trial_index":99,"time_elapsed":1465735,"internal_node_id":"0.0-95.0"},{"horizon":5,"rewards_L":[67,69,80,66,79],"rewards_R":[58,55,56,57,59],"key_presses":["arrowright","arrowleft","arrowright","arrowleft","arrowleft"],"response_times":[587,341,406,469,1228],"outcomes":[58,69,56,66,79],"screen_resolution":1,"trial_type":"horizons-trial","trial_index":100,"time_elapsed":1469414,"internal_node_id":"0.0-96.0"},{"horizon":5,"rewards_L":[60,58,82,73,67],"rewards_R":[26,42,39,32,24],"key_presses":["arrowleft","arrowright","arrowright","arrowright","arrowleft"],"response_times":[565,441,467,647,1046],"outcomes":[60,42,39,32,67],"screen_resolution":1,"trial_type":"horizons-trial","trial_index":101,"time_elapsed":1473190,"internal_node_id":"0.0-97.0"},{"horizon":10,"rewards_L":[34,22,35,41,31,28,24,39,31,44],"rewards_R":[37,72,68,55,59,65,68,62,69,56],"key_presses":["arrowright","arrowright","arrowright","arrowleft","arrowright","arrowright","arrowright","arrowright","arrowright","arrowleft"],"response_times":[517,544,511,367,912,967,1016,726,1041,956],"outcomes":[37,72,68,41,59,65,68,62,69,44],"screen_resolution":1,"trial_type":"horizons-trial","trial_index":102,"time_elapsed":1481504,"internal_node_id":"0.0-98.0"},{"horizon":10,"rewards_L":[48,52,58,55,56,54,77,57,54,60],"rewards_R":[82,81,68,81,85,75,65,66,78,90],"key_presses":["arrowright","arrowleft","arrowleft","arrowright","arrowright","arrowright","arrowright","arrowright","arrowright","arrowright"],"response_times":[601,347,501,390,921,723,1024,855,888,536],"outcomes":[82,52,58,81,85,75,65,66,78,90],"screen_resolution":1,"trial_type":"horizons-trial","trial_index":103,"time_elapsed":1488889,"internal_node_id":"0.0-99.0"},{"horizon":5,"rewards_L":[64,52,64,69,58],"rewards_R":[42,42,24,55,44],"key_presses":["arrowright","arrowright","arrowleft","arrowleft","arrowleft"],"response_times":[480,358,1265,393,1664],"outcomes":[42,42,64,69,58],"screen_resolution":1,"trial_type":"horizons-trial","trial_index":104,"time_elapsed":1493644,"internal_node_id":"0.0-100.0"},{"horizon":10,"rewards_L":[61,53,48,62,47,53,56,52,57,52],"rewards_R":[33,39,34,30,35,38,40,40,48,38],"key_presses":["arrowright","arrowleft","arrowright","arrowright","arrowright","arrowleft","arrowleft","arrowleft","arrowleft","arrowleft"],"response_times":[479,455,476,626,1172,1124,675,548,344,226],"outcomes":[33,53,34,30,35,53,56,52,57,52],"screen_resolution":1,"trial_type":"horizons-trial","trial_index":105,"time_elapsed":1500590,"internal_node_id":"0.0-101.0"},{"horizon":10,"rewards_L":[66,65,57,64,56,61,63,52,67,76],"rewards_R":[74,70,82,78,68,77,68,64,78,89],"key_presses":["arrowleft","arrowright","arrowright","arrowleft","arrowright","arrowright","arrowright","arrowleft","arrowright","arrowright"],"response_times":[1396,727,574,1256,939,1671,607,1210,504,500],"outcomes":[66,70,82,64,68,77,68,52,78,89],"screen_resolution":1,"trial_type":"horizons-trial","trial_index":106,"time_elapsed":1510531,"internal_node_id":"0.0-102.0"},{"horizon":10,"rewards_L":[58,59,57,50,54,54,61,62,46,74],"rewards_R":[66,80,86,97,84,70,80,71,79,89],"key_presses":["arrowleft","arrowright","arrowleft","arrowleft","arrowright","arrowright","arrowright","arrowright","arrowright","arrowright"],"response_times":[624,419,571,508,1024,404,545,612,455,272],"outcomes":[58,80,57,50,84,70,80,71,79,89],"screen_resolution":1,"trial_type":"horizons-trial","trial_index":107,"time_elapsed":1516487,"internal_node_id":"0.0-103.0"},{"horizon":5,"rewards_L":[100,81,79,84,91],"rewards_R":[64,53,72,52,51],"key_presses":["arrowleft","arrowright","arrowright","arrowleft","arrowleft"],"response_times":[650,441,1742,423,536],"outcomes":[100,53,72,84,91],"screen_resolution":1,"trial_type":"horizons-trial","trial_index":108,"time_elapsed":1520822,"internal_node_id":"0.0-104.0"},{"horizon":10,"rewards_L":[100,100,84,91,98,81,87,80,90,97],"rewards_R":[68,61,74,60,54,68,64,70,67,65],"key_presses":["arrowright","arrowleft","arrowright","arrowright","arrowright","arrowleft","arrowleft","arrowleft","arrowleft","arrowleft"],"response_times":[547,515,344,560,1192,809,488,401,196,439],"outcomes":[68,100,74,60,54,81,87,80,90,97],"screen_resolution":1,"trial_type":"horizons-trial","trial_index":109,"time_elapsed":1527544,"internal_node_id":"0.0-105.0"},{"horizon":10,"rewards_L":[39,46,41,35,45,35,33,42,47,42],"rewards_R":[29,27,18,30,34,34,26,22,40,18],"key_presses":["arrowright","arrowright","arrowleft","arrowleft","arrowleft","arrowleft","arrowright","arrowleft","arrowleft","arrowleft"],"response_times":[519,377,468,392,1699,567,804,541,306,408],"outcomes":[29,27,41,35,45,35,26,42,47,42],"screen_resolution":1,"trial_type":"horizons-trial","trial_index":110,"time_elapsed":1534309,"internal_node_id":"0.0-106.0"},{"horizon":5,"rewards_L":[31,50,32,40,40],"rewards_R":[68,64,55,70,63],"key_presses":["arrowright","arrowright","arrowleft","arrowright","arrowright"],"response_times":[517,399,365,422,793],"outcomes":[68,64,32,70,63],"screen_resolution":1,"trial_type":"horizons-trial","trial_index":111,"time_elapsed":1537423,"internal_node_id":"0.0-107.0"},{"horizon":5,"rewards_L":[79,87,63,74,83],"rewards_R":[63,70,52,61,59],"key_presses":["arrowleft","arrowleft","arrowright","arrowleft","arrowleft"],"response_times":[2996,416,418,407,934],"outcomes":[79,87,52,74,83],"screen_resolution":1,"trial_type":"horizons-trial","trial_index":112,"time_elapsed":1543528,"internal_node_id":"0.0-108.0"},{"horizon":10,"rewards_L":[62,62,62,71,62,57,55,55,76,66],"rewards_R":[52,62,59,56,38,59,63,48,49,55],"key_presses":["arrowright","arrowleft","arrowright","arrowleft","arrowleft","arrowleft","arrowright","arrowright","arrowleft","arrowleft"],"response_times":[530,703,354,426,1234,1178,682,895,664,622],"outcomes":[52,62,59,71,62,57,63,48,76,66],"screen_resolution":1,"trial_type":"horizons-trial","trial_index":113,"time_elapsed":1551510,"internal_node_id":"0.0-109.0"},{"horizon":5,"rewards_L":[21,33,44,28,39],"rewards_R":[46,35,36,34,50],"key_presses":["arrowleft","arrowright","arrowleft","arrowright","arrowright"],"response_times":[1020,437,395,511,1504],"outcomes":[21,35,44,34,50],"screen_resolution":1,"trial_type":"horizons-trial","trial_index":114,"time_elapsed":1556437,"internal_node_id":"0.0-110.0"},{"horizon":10,"rewards_L":[37,30,46,36,41,34,39,35,50,40],"rewards_R":[58,59,50,49,70,45,60,51,59,65],"key_presses":["arrowleft","arrowright","arrowleft","arrowleft","arrowright","arrowright","arrowleft","arrowright","arrowright","arrowright"],"response_times":[623,374,368,593,522,4444,863,581,403,297],"outcomes":[37,59,46,36,70,45,39,51,59,65],"screen_resolution":1,"trial_type":"horizons-trial","trial_index":115,"time_elapsed":1566037,"internal_node_id":"0.0-111.0"},{"horizon":5,"rewards_L":[55,45,45,38,44],"rewards_R":[60,69,59,51,61],"key_presses":["arrowleft","arrowright","arrowright","arrowleft","arrowright"],"response_times":[994,393,397,651,1052],"outcomes":[55,69,59,38,61],"screen_resolution":1,"trial_type":"horizons-trial","trial_index":116,"time_elapsed":1570229,"internal_node_id":"0.0-112.0"},{"horizon":5,"rewards_L":[47,46,53,55,37],"rewards_R":[54,50,50,55,56],"key_presses":["arrowright","arrowright","arrowright","arrowleft","arrowleft"],"response_times":[521,569,389,686,1508],"outcomes":[54,50,50,55,37],"screen_resolution":1,"trial_type":"horizons-trial","trial_index":117,"time_elapsed":1574681,"internal_node_id":"0.0-113.0"},{"horizon":5,"rewards_L":[33,38,44,27,31],"rewards_R":[62,47,49,47,58],"key_presses":["arrowright","arrowleft","arrowleft","arrowleft","arrowright"],"response_times":[412,356,434,604,1240],"outcomes":[62,38,44,27,58],"screen_resolution":1,"trial_type":"horizons-trial","trial_index":118,"time_elapsed":1578326,"internal_node_id":"0.0-114.0"},{"horizon":10,"rewards_L":[51,52,52,60,59,58,59,69,49,64],"rewards_R":[43,41,47,36,52,44,36,45,43,40],"key_presses":["arrowright","arrowright","arrowleft","arrowleft","arrowright","arrowleft","arrowleft","arrowleft","arrowleft","arrowleft"],"response_times":[584,443,492,436,334,1288,722,497,481,209],"outcomes":[43,41,52,60,52,58,59,69,49,64],"screen_resolution":1,"trial_type":"horizons-trial","trial_index":119,"time_elapsed":1584404,"internal_node_id":"0.0-115.0"},{"horizon":5,"rewards_L":[52,53,56,52,58],"rewards_R":[77,75,75,66,75],"key_presses":["arrowleft","arrowright","arrowleft","arrowleft","arrowleft"],"response_times":[589,1252,436,620,972],"outcomes":[52,75,56,52,58],"screen_resolution":1,"trial_type":"horizons-trial","trial_index":120,"time_elapsed":1588932,"internal_node_id":"0.0-116.0"},{"horizon":10,"rewards_L":[80,78,87,66,88,86,82,82,83,86],"rewards_R":[56,55,55,54,53,65,64,62,63,53],"key_presses":["arrowleft","arrowleft","arrowright","arrowleft","arrowleft","arrowleft","arrowleft","arrowleft","arrowleft","arrowleft"],"response_times":[751,424,523,455,1152,986,393,394,300,221],"outcomes":[80,78,55,66,88,86,82,82,83,86],"screen_resolution":1,"trial_type":"horizons-trial","trial_index":121,"time_elapsed":1595493,"internal_node_id":"0.0-117.0"},{"horizon":10,"rewards_L":[28,46,27,51,43,45,33,44,41,47],"rewards_R":[32,20,20,38,24,29,30,27,18,25],"key_presses":["arrowleft","arrowright","arrowleft","arrowright","arrowright","arrowleft","arrowleft","arrowleft","arrowright","arrowleft"],"response_times":[559,501,374,456,2235,658,686,522,456,515],"outcomes":[28,20,27,38,24,45,33,44,18,47],"screen_resolution":1,"trial_type":"horizons-trial","trial_index":122,"time_elapsed":1603103,"internal_node_id":"0.0-118.0"},{"horizon":10,"rewards_L":[70,44,57,48,41,57,65,71,55,43],"rewards_R":[54,56,66,61,53,54,65,56,58,61],"key_presses":["arrowleft","arrowleft","arrowright","arrowright","arrowleft","arrowright","arrowright","arrowleft","arrowright","arrowleft"],"response_times":[993,509,976,405,1242,768,646,1224,906,595],"outcomes":[70,44,66,61,41,54,65,71,58,43],"screen_resolution":1,"trial_type":"horizons-trial","trial_index":123,"time_elapsed":1612053,"internal_node_id":"0.0-119.0"},{"horizon":10,"rewards_L":[61,57,64,67,45,62,55,61,59,61],"rewards_R":[35,34,33,34,29,36,22,24,25,20],"key_presses":["arrowright","arrowleft","arrowleft","arrowright","arrowleft","arrowleft","arrowleft","arrowright","arrowleft","arrowleft"],"response_times":[580,322,418,402,356,1062,1431,1451,725,437],"outcomes":[35,57,64,34,45,62,55,24,59,61],"screen_resolution":1,"trial_type":"horizons-trial","trial_index":124,"time_elapsed":1619766,"internal_node_id":"0.0-120.0"},{"horizon":10,"rewards_L":[32,37,24,40,50,41,35,39,49,33],"rewards_R":[65,64,44,68,70,58,62,63,69,49],"key_presses":["arrowleft","arrowright","arrowleft","arrowright","arrowright","arrowright","arrowright","arrowright","arrowright","arrowright"],"response_times":[417,652,356,399,1123,1005,712,665,469,408],"outcomes":[32,64,24,68,70,58,62,63,69,49],"screen_resolution":1,"trial_type":"horizons-trial","trial_index":125,"time_elapsed":1626930,"internal_node_id":"0.0-121.0"},{"horizon":10,"rewards_L":[50,40,43,31,39,58,33,42,36,39],"rewards_R":[41,58,37,49,39,30,36,40,38,40],"key_presses":["arrowleft","arrowright","arrowleft","arrowleft","arrowright","arrowleft","arrowleft","arrowright","arrowleft","arrowright"],"response_times":[1037,419,323,490,1180,592,633,623,1332,500],"outcomes":[50,58,43,31,39,58,33,40,36,40],"screen_resolution":1,"trial_type":"horizons-trial","trial_index":126,"time_elapsed":1634768,"internal_node_id":"0.0-122.0"},{"horizon":5,"rewards_L":[34,52,42,47,41],"rewards_R":[49,58,41,39,53],"key_presses":["arrowleft","arrowleft","arrowright","arrowright","arrowleft"],"response_times":[575,445,416,558,2095],"outcomes":[34,52,41,39,41],"screen_resolution":1,"trial_type":"horizons-trial","trial_index":127,"time_elapsed":1639571,"internal_node_id":"0.0-123.0"},{"horizon":5,"rewards_L":[71,82,78,71,50],"rewards_R":[37,50,42,47,33],"key_presses":["arrowright","arrowright","arrowleft","arrowleft","arrowleft"],"response_times":[511,412,477,432,1370],"outcomes":[37,50,78,71,50],"screen_resolution":1,"trial_type":"horizons-trial","trial_index":128,"time_elapsed":1643921,"internal_node_id":"0.0-124.0"},{"horizon":5,"rewards_L":[24,17,44,39,36],"rewards_R":[16,3,5,24,7],"key_presses":["arrowleft","arrowleft","arrowleft","arrowright","arrowleft"],"response_times":[1260,819,390,452,676],"outcomes":[24,17,44,24,36],"screen_resolution":1,"trial_type":"horizons-trial","trial_index":129,"time_elapsed":1669743,"internal_node_id":"0.0-125.0"},{"horizon":5,"rewards_L":[38,31,39,36,51],"rewards_R":[0,5,19,1,0],"key_presses":["arrowleft","arrowright","arrowright","arrowright","arrowleft"],"response_times":[654,398,422,636,2084],"outcomes":[38,5,19,1,51],"screen_resolution":1,"trial_type":"horizons-trial","trial_index":130,"time_elapsed":1674503,"internal_node_id":"0.0-126.0"},{"horizon":10,"rewards_L":[33,35,37,24,64,42,43,36,39,37],"rewards_R":[31,28,39,33,50,25,36,30,43,35],"key_presses":["arrowright","arrowright","arrowright","arrowleft","arrowright","arrowleft","arrowright","arrowleft","arrowleft","arrowright"],"response_times":[662,646,382,404,1659,1278,874,1077,521,770],"outcomes":[31,28,39,24,50,42,36,36,39,35],"screen_resolution":1,"trial_type":"horizons-trial","trial_index":131,"time_elapsed":1683520,"internal_node_id":"0.0-127.0"},{"horizon":10,"rewards_L":[40,40,46,47,42,31,27,50,35,38],"rewards_R":[56,57,58,55,71,55,51,49,66,67],"key_presses":["arrowleft","arrowleft","arrowright","arrowright","arrowright","arrowright","arrowright","arrowright","arrowright","arrowright"],"response_times":[614,344,929,513,751,582,821,609,1213,413],"outcomes":[40,40,58,55,71,55,51,49,66,67],"screen_resolution":1,"trial_type":"horizons-trial","trial_index":132,"time_elapsed":1690846,"internal_node_id":"0.0-128.0"},{"horizon":10,"rewards_L":[10,12,12,7,3,17,8,12,12,14],"rewards_R":[31,45,32,32,41,36,33,32,41,38],"key_presses":["arrowright","arrowright","arrowright","arrowleft","arrowright","arrowright","arrowright","arrowright","arrowright","arrowright"],"response_times":[482,394,606,452,849,505,308,209,139,140],"outcomes":[31,45,32,7,41,36,33,32,41,38],"screen_resolution":1,"trial_type":"horizons-trial","trial_index":133,"time_elapsed":1695607,"internal_node_id":"0.0-129.0"},{"horizon":5,"rewards_L":[23,29,30,27,41],"rewards_R":[40,44,55,39,41],"key_presses":["arrowright","arrowright","arrowright","arrowleft","arrowright"],"response_times":[544,990,351,622,1193],"outcomes":[40,44,55,27,41],"screen_resolution":1,"trial_type":"horizons-trial","trial_index":134,"time_elapsed":1699895,"internal_node_id":"0.0-130.0"},{"horizon":10,"rewards_L":[68,56,65,54,52,62,66,54,59,53],"rewards_R":[35,36,39,64,55,45,28,43,47,34],"key_presses":["arrowleft","arrowleft","arrowright","arrowleft","arrowleft","arrowleft","arrowleft","arrowleft","arrowleft","arrowleft"],"response_times":[708,381,1229,603,1667,470,377,282,281,318],"outcomes":[68,56,39,54,52,62,66,54,59,53],"screen_resolution":1,"trial_type":"horizons-trial","trial_index":135,"time_elapsed":1706779,"internal_node_id":"0.0-131.0"},{"horizon":10,"rewards_L":[54,72,61,38,61,52,55,65,71,55],"rewards_R":[82,86,83,88,81,94,83,84,96,95],"key_presses":["arrowleft","arrowright","arrowleft","arrowleft","arrowright","arrowright","arrowright","arrowright","arrowright","arrowright"],"response_times":[785,419,329,848,1303,834,641,460,321,292],"outcomes":[54,86,61,38,81,94,83,84,96,95],"screen_resolution":1,"trial_type":"horizons-trial","trial_index":136,"time_elapsed":1713544,"internal_node_id":"0.0-132.0"},{"horizon":10,"rewards_L":[61,49,34,31,39,31,34,39,44,39],"rewards_R":[18,21,28,20,14,23,23,20,17,14],"key_presses":["arrowleft","arrowright","arrowright","arrowleft","arrowleft","arrowleft","arrowleft","arrowleft","arrowleft","arrowleft"],"response_times":[727,553,552,675,1910,547,501,489,449,255],"outcomes":[61,21,28,31,39,31,34,39,44,39],"screen_resolution":1,"trial_type":"horizons-trial","trial_index":137,"time_elapsed":1721021,"internal_node_id":"0.0-133.0"},{"horizon":10,"rewards_L":[53,59,47,61,67,60,53,64,60,66],"rewards_R":[46,32,39,40,27,22,23,39,40,42],"key_presses":["arrowleft","arrowright","arrowright","arrowright","arrowleft","arrowleft","arrowleft","arrowleft","arrowleft","arrowleft"],"response_times":[495,434,545,682,1619,613,1004,650,1049,935],"outcomes":[53,32,39,40,67,60,53,64,60,66],"screen_resolution":1,"trial_type":"horizons-trial","trial_index":138,"time_elapsed":1729720,"internal_node_id":"0.0-134.0"},{"horizon":10,"rewards_L":[44,61,47,62,54,56,53,55,36,51],"rewards_R":[53,54,57,53,67,62,60,59,69,63],"key_presses":["arrowright","arrowleft","arrowleft","arrowleft","arrowright","arrowright","arrowleft","arrowright","arrowright","arrowright"],"response_times":[474,356,379,378,486,2024,1464,568,1054,209],"outcomes":[53,61,47,62,67,62,53,59,69,63],"screen_resolution":1,"trial_type":"horizons-trial","trial_index":139,"time_elapsed":1737656,"internal_node_id":"0.0-135.0"},{"horizon":10,"rewards_L":[28,33,36,36,27,51,37,33,22,43],"rewards_R":[34,29,30,27,35,33,41,23,30,44],"key_presses":["arrowleft","arrowright","arrowright","arrowright","arrowleft","arrowright","arrowright","arrowleft","arrowright","arrowright"],"response_times":[631,335,539,591,1832,908,663,564,565,344],"outcomes":[28,29,30,27,27,33,41,33,30,44],"screen_resolution":1,"trial_type":"horizons-trial","trial_index":140,"time_elapsed":1745598,"internal_node_id":"0.0-136.0"},{"horizon":10,"rewards_L":[0,9,0,3,6,22,13,11,4,18],"rewards_R":[41,41,44,40,44,51,38,25,30,43],"key_presses":["arrowright","arrowright","arrowleft","arrowleft","arrowright","arrowright","arrowright","arrowright","arrowright","arrowright"],"response_times":[544,407,577,451,620,2324,299,295,196,400],"outcomes":[41,41,0,3,44,51,38,25,30,43],"screen_resolution":1,"trial_type":"horizons-trial","trial_index":141,"time_elapsed":1752314,"internal_node_id":"0.0-137.0"},{"horizon":5,"rewards_L":[89,77,82,70,83],"rewards_R":[61,53,56,66,69],"key_presses":["arrowleft","arrowleft","arrowright","arrowleft","arrowleft"],"response_times":[905,451,765,506,468],"outcomes":[89,77,56,70,83],"screen_resolution":1,"trial_type":"horizons-trial","trial_index":142,"time_elapsed":1755950,"internal_node_id":"0.0-138.0"},{"horizon":5,"rewards_L":[61,47,63,68,63],"rewards_R":[64,75,66,67,62],"key_presses":["arrowright","arrowright","arrowleft","arrowright","arrowright"],"response_times":[458,376,488,577,1139],"outcomes":[64,75,63,67,62],"screen_resolution":1,"trial_type":"horizons-trial","trial_index":143,"time_elapsed":1759709,"internal_node_id":"0.0-139.0"},{"horizon":5,"rewards_L":[43,32,44,25,26],"rewards_R":[35,53,38,55,35],"key_presses":["arrowright","arrowleft","arrowleft","arrowleft","arrowleft"],"response_times":[549,533,775,1470,1792],"outcomes":[35,32,44,25,26],"screen_resolution":1,"trial_type":"horizons-trial","trial_index":144,"time_elapsed":1765699,"internal_node_id":"0.0-140.0"},{"horizon":5,"rewards_L":[81,58,74,58,71],"rewards_R":[63,71,65,68,52],"key_presses":["arrowright","arrowleft","arrowright","arrowright","arrowright"],"response_times":[497,648,3694,689,558],"outcomes":[63,58,65,68,52],"screen_resolution":1,"trial_type":"horizons-trial","trial_index":145,"time_elapsed":1772914,"internal_node_id":"0.0-141.0"},{"horizon":10,"rewards_L":[63,46,70,65,61,61,56,67,52,54],"rewards_R":[68,80,75,81,72,65,57,57,53,70],"key_presses":["arrowleft","arrowright","arrowleft","arrowright","arrowright","arrowright","arrowleft","arrowright","arrowright","arrowright"],"response_times":[808,598,559,1190,1541,1187,532,550,542,257],"outcomes":[63,80,70,81,72,65,56,57,53,70],"screen_resolution":1,"trial_type":"horizons-trial","trial_index":146,"time_elapsed":1781646,"internal_node_id":"0.0-142.0"},{"horizon":5,"rewards_L":[48,37,58,51,44],"rewards_R":[55,50,59,65,49],"key_presses":["arrowright","arrowright","arrowleft","arrowright","arrowright"],"response_times":[744,539,482,440,1673],"outcomes":[55,50,58,65,49],"screen_resolution":1,"trial_type":"horizons-trial","trial_index":147,"time_elapsed":1786491,"internal_node_id":"0.0-143.0"},{"horizon":5,"rewards_L":[60,59,59,58,51],"rewards_R":[39,34,52,38,28],"key_presses":["arrowright","arrowleft","arrowright","arrowright","arrowleft"],"response_times":[714,409,354,555,1227],"outcomes":[39,59,52,38,51],"screen_resolution":1,"trial_type":"horizons-trial","trial_index":148,"time_elapsed":1790293,"internal_node_id":"0.0-144.0"},{"horizon":5,"rewards_L":[27,35,38,47,41],"rewards_R":[35,34,47,26,42],"key_presses":["arrowright","arrowleft","arrowleft","arrowleft","arrowright"],"response_times":[516,351,466,676,1117],"outcomes":[35,35,38,47,42],"screen_resolution":1,"trial_type":"horizons-trial","trial_index":149,"time_elapsed":1794494,"internal_node_id":"0.0-145.0"},{"horizon":10,"rewards_L":[42,54,57,43,50,50,57,42,44,42],"rewards_R":[48,48,39,46,29,56,52,33,40,37],"key_presses":["arrowright","arrowleft","arrowleft","arrowright","arrowleft","arrowright","arrowleft","arrowright","arrowleft","arrowleft"],"response_times":[606,476,467,434,2232,1635,7465,1059,738,420],"outcomes":[48,54,57,46,50,56,57,33,44,42],"screen_resolution":1,"trial_type":"horizons-trial","trial_index":150,"time_elapsed":1810668,"internal_node_id":"0.0-146.0"},{"horizon":10,"rewards_L":[57,53,51,62,62,51,60,66,53,64],"rewards_R":[74,72,81,61,77,63,83,63,83,87],"key_presses":["arrowleft","arrowright","arrowleft","arrowleft","arrowright","arrowright","arrowleft","arrowright","arrowright","arrowright"],"response_times":[653,499,466,937,707,954,664,794,976,322],"outcomes":[57,72,51,62,77,63,60,63,83,87],"screen_resolution":1,"trial_type":"horizons-trial","trial_index":151,"time_elapsed":1818178,"internal_node_id":"0.0-147.0"},{"horizon":10,"rewards_L":[69,62,49,58,53,66,46,55,58,56],"rewards_R":[65,53,51,61,57,56,66,43,64,64],"key_presses":["arrowright","arrowleft","arrowleft","arrowleft","arrowright","arrowleft","arrowright","arrowleft","arrowright","arrowleft"],"response_times":[490,333,443,602,444,3791,1346,1733,708,441],"outcomes":[65,62,49,58,57,66,66,55,64,56],"screen_resolution":1,"trial_type":"horizons-trial","trial_index":152,"time_elapsed":1830051,"internal_node_id":"0.0-148.0"},{"horizon":5,"rewards_L":[16,38,19,29,39],"rewards_R":[51,33,49,40,34],"key_presses":["arrowright","arrowleft","arrowleft","arrowleft","arrowright"],"response_times":[708,376,1056,14571,2483],"outcomes":[51,38,19,29,34],"screen_resolution":1,"trial_type":"horizons-trial","trial_index":153,"time_elapsed":1849790,"internal_node_id":"0.0-149.0"},{"horizon":5,"rewards_L":[46,43,49,48,41],"rewards_R":[50,44,51,53,67],"key_presses":["arrowleft","arrowright","arrowleft","arrowleft","arrowleft"],"response_times":[544,438,432,499,1186],"outcomes":[46,44,49,48,41],"screen_resolution":1,"trial_type":"horizons-trial","trial_index":154,"time_elapsed":1853510,"internal_node_id":"0.0-150.0"},{"horizon":5,"rewards_L":[76,59,68,70,71],"rewards_R":[62,80,72,55,78],"key_presses":["arrowleft","arrowright","arrowleft","arrowleft","arrowright"],"response_times":[775,600,853,502,542],"outcomes":[76,80,68,70,78],"screen_resolution":1,"trial_type":"horizons-trial","trial_index":155,"time_elapsed":1857352,"internal_node_id":"0.0-151.0"},{"horizon":10,"rewards_L":[78,57,47,53,79,51,64,50,49,59],"rewards_R":[66,59,48,58,67,54,66,72,71,67],"key_presses":["arrowleft","arrowleft","arrowright","arrowright","arrowleft","arrowleft","arrowright","arrowleft","arrowright","arrowright"],"response_times":[504,568,498,367,736,845,975,3127,727,415],"outcomes":[78,57,48,58,79,51,66,50,71,67],"screen_resolution":1,"trial_type":"horizons-trial","trial_index":156,"time_elapsed":1866801,"internal_node_id":"0.0-152.0"},{"horizon":10,"rewards_L":[50,52,46,48,57,46,53,40,38,53],"rewards_R":[32,42,39,35,38,42,49,39,35,42],"key_presses":["arrowleft","arrowright","arrowright","arrowleft","arrowleft","arrowright","arrowleft","arrowright","arrowright","arrowleft"],"response_times":[519,466,420,1030,3071,1915,1297,1102,1080,306],"outcomes":[50,42,39,48,57,42,53,39,35,53],"screen_resolution":1,"trial_type":"horizons-trial","trial_index":157,"time_elapsed":1878892,"internal_node_id":"0.0-153.0"},{"horizon":10,"rewards_L":[44,46,38,40,56,37,41,47,44,40],"rewards_R":[41,35,42,60,35,33,35,44,27,39],"key_presses":["arrowleft","arrowleft","arrowright","arrowleft","arrowleft","arrowright","arrowleft","arrowleft","arrowleft","arrowleft"],"response_times":[695,447,691,429,776,1032,712,463,191,406],"outcomes":[44,46,42,40,56,33,41,47,44,40],"screen_resolution":1,"trial_type":"horizons-trial","trial_index":158,"time_elapsed":1885566,"internal_node_id":"0.0-154.0"},{"horizon":10,"rewards_L":[69,58,49,64,52,59,56,52,63,58],"rewards_R":[42,54,46,45,55,39,58,49,39,56],"key_presses":["arrowleft","arrowright","arrowright","arrowright","arrowleft","arrowright","arrowleft","arrowleft","arrowright","arrowleft"],"response_times":[493,436,550,549,1523,961,550,548,1095,382],"outcomes":[69,54,46,45,52,39,56,52,39,58],"screen_resolution":1,"trial_type":"horizons-trial","trial_index":159,"time_elapsed":1893295,"internal_node_id":"0.0-155.0"},{"horizon":10,"rewards_L":[37,31,44,37,48,40,38,35,48,45],"rewards_R":[49,33,32,39,65,32,53,32,43,41],"key_presses":["arrowleft","arrowleft","arrowright","arrowright","arrowright","arrowright","arrowleft","arrowleft","arrowright","arrowright"],"response_times":[504,314,731,592,1119,1389,588,2127,494,450],"outcomes":[37,31,32,39,65,32,38,35,43,41],"screen_resolution":1,"trial_type":"horizons-trial","trial_index":160,"time_elapsed":1902225,"internal_node_id":"0.0-156.0"},{"horizon":10,"rewards_L":[83,100,84,86,84,86,91,100,98,81],"rewards_R":[62,58,64,66,62,60,61,54,59,50],"key_presses":["arrowright","arrowright","arrowleft","arrowleft","arrowleft","arrowleft","arrowright","arrowright","arrowleft","arrowleft"],"response_times":[698,466,532,483,1246,1860,1931,1471,2859,480],"outcomes":[62,58,84,86,84,86,61,54,98,81],"screen_resolution":1,"trial_type":"horizons-trial","trial_index":161,"time_elapsed":1917431,"internal_node_id":"0.0-157.0"},{"horizon":10,"rewards_L":[38,26,26,48,34,41,32,23,38,46],"rewards_R":[32,46,51,50,38,42,68,63,50,51],"key_presses":["arrowleft","arrowright","arrowleft","arrowleft","arrowleft","arrowright","arrowright","arrowleft","arrowright","arrowright"],"response_times":[542,455,413,474,5197,547,744,1153,608,401],"outcomes":[38,46,26,48,34,42,68,23,50,51],"screen_resolution":1,"trial_type":"horizons-trial","trial_index":162,"time_elapsed":1928483,"internal_node_id":"0.0-158.0"},{"horizon":5,"rewards_L":[99,97,70,99,84],"rewards_R":[63,68,70,60,58],"key_presses":["arrowleft","arrowleft","arrowright","arrowleft","arrowleft"],"response_times":[497,337,484,498,832],"outcomes":[99,97,70,99,84],"screen_resolution":1,"trial_type":"horizons-trial","trial_index":163,"time_elapsed":1931758,"internal_node_id":"0.0-159.0"},{"horizon":10,"rewards_L":[56,69,79,60,64,63,67,70,66,52],"rewards_R":[42,52,40,46,50,51,46,58,46,50],"key_presses":["arrowleft","arrowright","arrowright","arrowright","arrowleft","arrowleft","arrowright","arrowleft","arrowleft","arrowleft"],"response_times":[503,379,379,441,1515,1178,754,565,626,199],"outcomes":[56,52,40,46,64,63,46,70,66,52],"screen_resolution":1,"trial_type":"horizons-trial","trial_index":164,"time_elapsed":1938825,"internal_node_id":"0.0-160.0"},{"horizon":10,"rewards_L":[47,25,42,45,41,45,50,36,45,39],"rewards_R":[27,11,11,14,31,28,23,24,17,30],"key_presses":["arrowleft","arrowright","arrowright","arrowright","arrowleft","arrowleft","arrowleft","arrowleft","arrowleft","arrowleft"],"response_times":[517,470,410,529,590,455,332,275,276,265],"outcomes":[47,11,11,14,41,45,50,36,45,39],"screen_resolution":1,"trial_type":"horizons-trial","trial_index":165,"time_elapsed":1943478,"internal_node_id":"0.0-161.0"},{"horizon":10,"rewards_L":[40,46,22,45,33,27,39,48,34,39],"rewards_R":[66,64,57,49,61,61,74,56,64,66],"key_presses":["arrowleft","arrowright","arrowleft","arrowright","arrowright","arrowright","arrowright","arrowright","arrowright","arrowright"],"response_times":[468,443,349,385,1119,1053,709,723,758,245],"outcomes":[40,64,22,49,61,61,74,56,64,66],"screen_resolution":1,"trial_type":"horizons-trial","trial_index":166,"time_elapsed":1950296,"internal_node_id":"0.0-162.0"},{"horizon":5,"rewards_L":[66,57,51,65,64],"rewards_R":[53,37,36,40,45],"key_presses":["arrowleft","arrowright","arrowright","arrowleft","arrowleft"],"response_times":[645,346,449,916,353],"outcomes":[66,37,36,65,64],"screen_resolution":1,"trial_type":"horizons-trial","trial_index":167,"time_elapsed":1953625,"internal_node_id":"0.0-163.0"},{"horizon":10,"rewards_L":[13,32,33,21,28,27,39,22,35,31],"rewards_R":[21,33,33,34,32,29,39,38,36,58],"key_presses":["arrowright","arrowleft","arrowleft","arrowleft","arrowright","arrowright","arrowleft","arrowright","arrowleft","arrowright"],"response_times":[542,459,806,1360,730,597,482,882,988,595],"outcomes":[21,32,33,21,32,29,39,38,35,58],"screen_resolution":1,"trial_type":"horizons-trial","trial_index":168,"time_elapsed":1961822,"internal_node_id":"0.0-164.0"},{"horizon":10,"rewards_L":[33,40,42,28,23,34,56,33,32,34],"rewards_R":[46,55,50,55,52,48,45,57,60,65],"key_presses":["arrowright","arrowright","arrowleft","arrowright","arrowright","arrowleft","arrowright","arrowright","arrowright","arrowright"],"response_times":[539,552,538,2609,1178,1557,698,517,429,270],"outcomes":[46,55,42,55,52,34,45,57,60,65],"screen_resolution":1,"trial_type":"horizons-trial","trial_index":169,"time_elapsed":1971488,"internal_node_id":"0.0-165.0"},{"horizon":5,"rewards_L":[51,54,45,35,48],"rewards_R":[48,43,35,50,40],"key_presses":["arrowleft","arrowright","arrowright","arrowleft","arrowright"],"response_times":[749,353,576,758,3553],"outcomes":[51,43,35,35,40],"screen_resolution":1,"trial_type":"horizons-trial","trial_index":170,"time_elapsed":1978206,"internal_node_id":"0.0-166.0"},{"horizon":5,"rewards_L":[63,48,67,65,54],"rewards_R":[89,86,92,86,87],"key_presses":["arrowleft","arrowright","arrowleft","arrowleft","arrowright"],"response_times":[499,403,484,485,679],"outcomes":[63,86,67,65,87],"screen_resolution":1,"trial_type":"horizons-trial","trial_index":171,"time_elapsed":1981330,"internal_node_id":"0.0-167.0"},{"horizon":5,"rewards_L":[16,15,23,32,20],"rewards_R":[27,30,59,28,32],"key_presses":["arrowleft","arrowright","arrowleft","arrowright","arrowright"],"response_times":[523,491,400,402,1235],"outcomes":[16,30,23,28,32],"screen_resolution":1,"trial_type":"horizons-trial","trial_index":172,"time_elapsed":1985275,"internal_node_id":"0.0-168.0"},{"horizon":10,"rewards_L":[38,38,34,39,26,58,30,53,46,31],"rewards_R":[69,42,67,61,52,59,64,62,53,55],"key_presses":["arrowright","arrowright","arrowleft","arrowright","arrowright","arrowright","arrowright","arrowright","arrowright","arrowright"],"response_times":[548,534,382,382,1008,1138,520,382,264,451],"outcomes":[69,42,34,61,52,59,64,62,53,55],"screen_resolution":1,"trial_type":"horizons-trial","trial_index":173,"time_elapsed":1991478,"internal_node_id":"0.0-169.0"},{"horizon":5,"rewards_L":[88,79,66,95,82],"rewards_R":[63,57,59,61,63],"key_presses":["arrowleft","arrowleft","arrowright","arrowright","arrowleft"],"response_times":[642,363,706,619,341],"outcomes":[88,79,59,61,82],"screen_resolution":1,"trial_type":"horizons-trial","trial_index":174,"time_elapsed":1995214,"internal_node_id":"0.0-170.0"},{"horizon":5,"rewards_L":[50,50,71,63,55],"rewards_R":[58,58,56,57,53],"key_presses":["arrowleft","arrowright","arrowright","arrowright","arrowright"],"response_times":[710,486,424,616,1056],"outcomes":[50,58,56,57,53],"screen_resolution":1,"trial_type":"horizons-trial","trial_index":175,"time_elapsed":1999088,"internal_node_id":"0.0-171.0"},{"horizon":5,"rewards_L":[55,58,64,65,68],"rewards_R":[71,57,77,63,68],"key_presses":["arrowright","arrowright","arrowleft","arrowright","arrowright"],"response_times":[458,314,602,427,609],"outcomes":[71,57,64,63,68],"screen_resolution":1,"trial_type":"horizons-trial","trial_index":176,"time_elapsed":2002211,"internal_node_id":"0.0-172.0"},{"horizon":10,"rewards_L":[37,32,24,28,36,37,42,25,20,23],"rewards_R":[64,54,68,59,55,46,72,58,51,53],"key_presses":["arrowleft","arrowright","arrowright","arrowleft","arrowright","arrowright","arrowleft","arrowright","arrowright","arrowright"],"response_times":[482,441,424,1075,521,683,1270,524,757,200],"outcomes":[37,54,68,28,55,46,42,58,51,53],"screen_resolution":1,"trial_type":"horizons-trial","trial_index":177,"time_elapsed":2009144,"internal_node_id":"0.0-173.0"},{"horizon":10,"rewards_L":[54,44,35,31,46,46,47,44,41,54],"rewards_R":[56,69,75,69,62,71,62,53,49,56],"key_presses":["arrowright","arrowright","arrowleft","arrowleft","arrowright","arrowright","arrowright","arrowright","arrowright","arrowright"],"response_times":[414,329,450,386,559,743,991,465,261,242],"outcomes":[56,69,35,31,62,71,62,53,49,56],"screen_resolution":1,"trial_type":"horizons-trial","trial_index":178,"time_elapsed":2014547,"internal_node_id":"0.0-174.0"},{"horizon":5,"rewards_L":[41,39,38,47,36],"rewards_R":[54,69,50,48,56],"key_presses":["arrowright","arrowleft","arrowleft","arrowleft","arrowright"],"response_times":[455,1003,544,926,744],"outcomes":[54,39,38,47,56],"screen_resolution":1,"trial_type":"horizons-trial","trial_index":179,"time_elapsed":2018801,"internal_node_id":"0.0-175.0"},{"horizon":5,"rewards_L":[36,30,34,43,30],"rewards_R":[31,42,41,35,28],"key_presses":["arrowleft","arrowright","arrowleft","arrowright","arrowright"],"response_times":[553,491,461,504,2745],"outcomes":[36,42,34,35,28],"screen_resolution":1,"trial_type":"horizons-trial","trial_index":180,"time_elapsed":2024214,"internal_node_id":"0.0-176.0"},{"horizon":5,"rewards_L":[39,46,45,41,42],"rewards_R":[51,49,57,51,52],"key_presses":["arrowleft","arrowright","arrowright","arrowleft","arrowright"],"response_times":[561,474,466,1378,1145],"outcomes":[39,49,57,41,52],"screen_resolution":1,"trial_type":"horizons-trial","trial_index":181,"time_elapsed":2029242,"internal_node_id":"0.0-177.0"},{"horizon":5,"rewards_L":[47,60,55,62,64],"rewards_R":[35,52,47,70,49],"key_presses":["arrowleft","arrowright","arrowright","arrowright","arrowright"],"response_times":[796,409,561,521,969],"outcomes":[47,52,47,70,49],"screen_resolution":1,"trial_type":"horizons-trial","trial_index":182,"time_elapsed":2033183,"internal_node_id":"0.0-178.0"},{"horizon":5,"rewards_L":[62,81,60,62,60],"rewards_R":[75,64,55,70,52],"key_presses":["arrowright","arrowleft","arrowleft","arrowright","arrowleft"],"response_times":[465,626,840,578,443],"outcomes":[75,81,60,70,60],"screen_resolution":1,"trial_type":"horizons-trial","trial_index":183,"time_elapsed":2036873,"internal_node_id":"0.0-179.0"},{"horizon":5,"rewards_L":[65,60,75,45,58],"rewards_R":[83,82,92,71,64],"key_presses":["arrowright","arrowright","arrowleft","arrowright","arrowright"],"response_times":[593,433,615,434,961],"outcomes":[83,82,75,71,64],"screen_resolution":1,"trial_type":"horizons-trial","trial_index":184,"time_elapsed":2040847,"internal_node_id":"0.0-180.0"},{"horizon":5,"rewards_L":[0,10,0,6,17],"rewards_R":[42,48,49,63,33],"key_presses":["arrowright","arrowleft","arrowleft","arrowleft","arrowright"],"response_times":[950,455,658,564,468],"outcomes":[42,10,0,6,33],"screen_resolution":1,"trial_type":"horizons-trial","trial_index":185,"time_elapsed":2045280,"internal_node_id":"0.0-181.0"},{"horizon":10,"rewards_L":[82,76,79,78,93,71,72,83,77,84],"rewards_R":[65,67,52,52,61,47,71,66,62,52],"key_presses":["arrowleft","arrowleft","arrowright","arrowright","arrowleft","arrowleft","arrowleft","arrowleft","arrowleft","arrowleft"],"response_times":[506,438,440,319,606,567,1111,525,391,213],"outcomes":[82,76,52,52,93,71,72,83,77,84],"screen_resolution":1,"trial_type":"horizons-trial","trial_index":186,"time_elapsed":2050935,"internal_node_id":"0.0-182.0"},{"horizon":5,"rewards_L":[44,48,37,41,44],"rewards_R":[33,27,27,16,15],"key_presses":["arrowleft","arrowleft","arrowleft","arrowright","arrowleft"],"response_times":[442,277,281,579,487],"outcomes":[44,48,37,16,44],"screen_resolution":1,"trial_type":"horizons-trial","trial_index":187,"time_elapsed":2053641,"internal_node_id":"0.0-183.0"},{"horizon":10,"rewards_L":[59,57,47,62,60,59,50,72,59,56],"rewards_R":[42,44,45,47,30,51,50,32,53,37],"key_presses":["arrowright","arrowleft","arrowright","arrowright","arrowleft","arrowleft","arrowright","arrowleft","arrowleft","arrowleft"],"response_times":[915,520,382,480,539,575,585,583,527,257],"outcomes":[42,57,45,47,60,59,50,72,59,56],"screen_resolution":1,"trial_type":"horizons-trial","trial_index":188,"time_elapsed":2059909,"internal_node_id":"0.0-184.0"},{"horizon":10,"rewards_L":[57,50,77,69,52,47,68,54,66,68],"rewards_R":[16,22,27,34,20,14,23,34,34,29],"key_presses":["arrowleft","arrowright","arrowright","arrowleft","arrowleft","arrowleft","arrowleft","arrowleft","arrowleft","arrowleft"],"response_times":[623,571,457,723,425,318,298,262,278,247],"outcomes":[57,22,27,69,52,47,68,54,66,68],"screen_resolution":1,"trial_type":"horizons-trial","trial_index":189,"time_elapsed":2066416,"internal_node_id":"0.0-185.0"},{"horizon":10,"rewards_L":[40,49,58,49,68,48,46,55,35,54],"rewards_R":[59,58,45,68,63,57,49,62,49,75],"key_presses":["arrowright","arrowleft","arrowleft","arrowright","arrowright","arrowright","arrowright","arrowleft","arrowleft","arrowleft"],"response_times":[653,522,452,420,1915,1139,798,785,869,389],"outcomes":[59,49,58,68,63,57,49,55,35,54],"screen_resolution":1,"trial_type":"horizons-trial","trial_index":190,"time_elapsed":2075024,"internal_node_id":"0.0-186.0"},{"horizon":5,"rewards_L":[81,80,74,72,76],"rewards_R":[32,36,38,36,32],"key_presses":["arrowright","arrowleft","arrowright","arrowleft","arrowright"],"response_times":[749,508,347,1394,846],"outcomes":[32,80,38,72,32],"screen_resolution":1,"trial_type":"horizons-trial","trial_index":191,"time_elapsed":2079625,"internal_node_id":"0.0-187.0"},{"horizon":5,"rewards_L":[29,37,21,23,31],"rewards_R":[27,39,44,48,33],"key_presses":["arrowright","arrowright","arrowright","arrowleft","arrowright"],"response_times":[532,393,499,397,693],"outcomes":[27,39,44,23,33],"screen_resolution":1,"trial_type":"horizons-trial","trial_index":192,"time_elapsed":2082745,"internal_node_id":"0.0-188.0"},{"horizon":5,"rewards_L":[72,56,58,54,56],"rewards_R":[43,63,63,53,47],"key_presses":["arrowleft","arrowleft","arrowright","arrowleft","arrowleft"],"response_times":[424,307,549,980,1575],"outcomes":[72,56,63,54,56],"screen_resolution":1,"trial_type":"horizons-trial","trial_index":193,"time_elapsed":2087570,"internal_node_id":"0.0-189.0"},{"horizon":10,"rewards_L":[49,39,52,51,44,42,57,48,61,69],"rewards_R":[55,58,66,38,68,59,56,56,61,58],"key_presses":["arrowright","arrowleft","arrowright","arrowleft","arrowright","arrowright","arrowleft","arrowright","arrowright","arrowright"],"response_times":[597,504,16444,373,1191,768,698,510,661,618],"outcomes":[55,39,66,51,68,59,57,56,61,58],"screen_resolution":1,"trial_type":"horizons-trial","trial_index":194,"time_elapsed":2111353,"internal_node_id":"0.0-190.0"},{"horizon":5,"rewards_L":[30,46,43,42,36],"rewards_R":[60,39,43,56,40],"key_presses":["arrowleft","arrowright","arrowleft","arrowright","arrowright"],"response_times":[929,333,290,343,1994],"outcomes":[30,39,43,56,40],"screen_resolution":1,"trial_type":"horizons-trial","trial_index":195,"time_elapsed":2115911,"internal_node_id":"0.0-191.0"},{"horizon":5,"rewards_L":[34,47,32,45,41],"rewards_R":[58,60,60,58,68],"key_presses":["arrowright","arrowleft","arrowright","arrowleft","arrowright"],"response_times":[524,300,331,501,1028],"outcomes":[58,47,60,45,68],"screen_resolution":1,"trial_type":"horizons-trial","trial_index":196,"time_elapsed":2155638,"internal_node_id":"0.0-192.0"},{"horizon":10,"rewards_L":[57,68,57,68,67,67,44,48,61,54],"rewards_R":[36,47,35,46,72,37,52,56,29,54],"key_presses":["arrowleft","arrowright","arrowright","arrowleft","arrowleft","arrowleft","arrowleft","arrowright","arrowright","arrowleft"],"response_times":[646,359,581,500,1025,856,690,583,542,584],"outcomes":[57,47,35,68,67,67,44,56,29,54],"screen_resolution":1,"trial_type":"horizons-trial","trial_index":197,"time_elapsed":2162977,"internal_node_id":"0.0-193.0"},{"horizon":5,"rewards_L":[54,68,51,67,55],"rewards_R":[46,37,29,46,52],"key_presses":["arrowright","arrowleft","arrowleft","arrowright","arrowleft"],"response_times":[12004,413,444,1280,1506],"outcomes":[46,68,51,46,55],"screen_resolution":1,"trial_type":"horizons-trial","trial_index":198,"time_elapsed":2186836,"internal_node_id":"0.0-194.0"},{"horizon":10,"rewards_L":[71,63,65,66,74,76,66,56,77,59],"rewards_R":[49,42,36,34,26,44,32,37,30,54],"key_presses":["arrowleft","arrowleft","arrowright","arrowleft","arrowleft","arrowleft","arrowleft","arrowleft","arrowleft","arrowleft"],"response_times":[940,1145,881,510,466,445,394,260,274,339],"outcomes":[71,63,36,66,74,76,66,56,77,59],"screen_resolution":1,"trial_type":"horizons-trial","trial_index":199,"time_elapsed":2193086,"internal_node_id":"0.0-195.0"},{"horizon":10,"rewards_L":[44,38,28,32,22,46,34,47,32,33],"rewards_R":[58,55,52,62,45,56,40,60,62,53],"key_presses":["arrowright","arrowleft","arrowleft","arrowright","arrowright","arrowright","arrowright","arrowright","arrowright","arrowright"],"response_times":[590,301,607,474,702,454,606,423,302,231],"outcomes":[58,38,28,62,45,56,40,60,62,53],"screen_resolution":1,"trial_type":"horizons-trial","trial_index":200,"time_elapsed":2198310,"internal_node_id":"0.0-196.0"},{"horizon":10,"rewards_L":[42,43,58,49,61,46,49,53,52,47],"rewards_R":[65,51,62,54,58,56,53,74,63,63],"key_presses":["arrowright","arrowright","arrowright","arrowleft","arrowleft","arrowright","arrowleft","arrowright","arrowright","arrowright"],"response_times":[671,480,478,846,630,2682,694,679,843,364],"outcomes":[65,51,62,49,61,56,49,74,63,63],"screen_resolution":1,"trial_type":"horizons-trial","trial_index":201,"time_elapsed":2207205,"internal_node_id":"0.0-197.0"},{"horizon":10,"rewards_L":[84,64,67,62,62,67,69,70,61,62],"rewards_R":[57,61,60,43,63,55,59,50,62,58],"key_presses":["arrowright","arrowleft","arrowright","arrowright","arrowleft","arrowright","arrowleft","arrowleft","arrowleft","arrowleft"],"response_times":[680,417,388,1086,784,691,631,462,384,354],"outcomes":[57,64,60,43,62,55,69,70,61,62],"screen_resolution":1,"trial_type":"horizons-trial","trial_index":202,"time_elapsed":2213640,"internal_node_id":"0.0-198.0"},{"horizon":10,"rewards_L":[45,45,66,56,46,55,49,65,69,74],"rewards_R":[93,88,93,77,92,96,79,94,92,98],"key_presses":["arrowright","arrowright","arrowleft","arrowright","arrowright","arrowleft","arrowright","arrowright","arrowright","arrowright"],"response_times":[557,579,842,632,1370,1305,793,1586,724,322],"outcomes":[93,88,66,77,92,55,79,94,92,98],"screen_resolution":1,"trial_type":"horizons-trial","trial_index":203,"time_elapsed":2222874,"internal_node_id":"0.0-199.0"},{"horizon":10,"rewards_L":[81,84,71,71,80,84,75,89,84,98],"rewards_R":[60,56,71,53,66,51,43,71,60,68],"key_presses":["arrowright","arrowleft","arrowleft","arrowright","arrowleft","arrowleft","arrowright","arrowleft","arrowleft","arrowleft"],"response_times":[537,754,853,429,585,671,671,364,401,354],"outcomes":[60,84,71,53,80,84,43,89,84,98],"screen_resolution":1,"trial_type":"horizons-trial","trial_index":204,"time_elapsed":2229388,"internal_node_id":"0.0-200.0"},{"horizon":5,"rewards_L":[31,34,25,24,50],"rewards_R":[58,68,71,44,57],"key_presses":["arrowleft","arrowleft","arrowright","arrowright","arrowright"],"response_times":[526,362,435,650,334],"outcomes":[31,34,71,44,57],"screen_resolution":1,"trial_type":"horizons-trial","trial_index":205,"time_elapsed":2232317,"internal_node_id":"0.0-201.0"},{"horizon":10,"rewards_L":[24,40,48,45,40,41,29,35,30,35],"rewards_R":[16,9,28,12,18,9,21,12,11,11],"key_presses":["arrowleft","arrowleft","arrowleft","arrowright","arrowleft","arrowleft","arrowleft","arrowleft","arrowright","arrowleft"],"response_times":[479,431,322,522,775,611,641,324,441,483],"outcomes":[24,40,48,12,40,41,29,35,11,35],"screen_resolution":1,"trial_type":"horizons-trial","trial_index":206,"time_elapsed":2237992,"internal_node_id":"0.0-202.0"},{"horizon":10,"rewards_L":[44,55,25,37,65,39,44,33,37,44],"rewards_R":[30,11,43,22,42,22,27,20,19,33],"key_presses":["arrowleft","arrowleft","arrowleft","arrowright","arrowleft","arrowleft","arrowright","arrowleft","arrowleft","arrowleft"],"response_times":[718,413,778,411,580,545,1425,385,357,270],"outcomes":[44,55,25,22,65,39,27,33,37,44],"screen_resolution":1,"trial_type":"horizons-trial","trial_index":207,"time_elapsed":2244704,"internal_node_id":"0.0-203.0"},{"horizon":10,"rewards_L":[59,65,67,65,53,58,56,58,52,61],"rewards_R":[68,70,83,77,79,73,69,81,75,77],"key_presses":["arrowright","arrowleft","arrowright","arrowleft","arrowright","arrowright","arrowleft","arrowright","arrowright","arrowright"],"response_times":[793,393,465,463,1099,1191,935,389,500,353],"outcomes":[68,65,83,65,79,73,56,81,75,77],"screen_resolution":1,"trial_type":"horizons-trial","trial_index":208,"time_elapsed":2253540,"internal_node_id":"0.0-204.0"},{"horizon":10,"rewards_L":[67,68,76,60,62,72,70,68,58,72],"rewards_R":[64,64,51,60,79,68,52,76,59,68],"key_presses":["arrowleft","arrowleft","arrowright","arrowleft","arrowleft","arrowleft","arrowleft","arrowleft","arrowleft","arrowleft"],"response_times":[602,668,562,515,539,645,1088,324,220,342],"outcomes":[67,68,51,60,62,72,70,68,58,72],"screen_resolution":1,"trial_type":"horizons-trial","trial_index":209,"time_elapsed":2259617,"internal_node_id":"0.0-205.0"},{"horizon":5,"rewards_L":[28,19,32,24,41],"rewards_R":[44,37,46,36,47],"key_presses":["arrowleft","arrowleft","arrowright","arrowright","arrowleft"],"response_times":[504,359,724,613,712],"outcomes":[28,19,46,36,41],"screen_resolution":1,"trial_type":"horizons-trial","trial_index":210,"time_elapsed":2263469,"internal_node_id":"0.0-206.0"},{"horizon":10,"rewards_L":[56,50,64,50,54,62,61,59,77,46],"rewards_R":[67,58,47,50,50,57,47,50,46,41],"key_presses":["arrowleft","arrowleft","arrowright","arrowright","arrowleft","arrowleft","arrowleft","arrowleft","arrowleft","arrowleft"],"response_times":[616,378,658,308,524,441,1116,238,227,299],"outcomes":[56,50,47,50,54,62,61,59,77,46],"screen_resolution":1,"trial_type":"horizons-trial","trial_index":211,"time_elapsed":2269313,"internal_node_id":"0.0-207.0"},{"horizon":5,"rewards_L":[38,26,31,46,40],"rewards_R":[11,28,2,19,20],"key_presses":["arrowleft","arrowleft","arrowright","arrowright","arrowleft"],"response_times":[561,349,360,332,326],"outcomes":[38,26,2,19,40],"screen_resolution":1,"trial_type":"horizons-trial","trial_index":212,"time_elapsed":2272107,"internal_node_id":"0.0-208.0"},{"horizon":10,"rewards_L":[2,3,23,17,7,14,6,0,6,12],"rewards_R":[49,37,55,48,46,40,42,41,41,59],"key_presses":["arrowright","arrowleft","arrowleft","arrowleft","arrowright","arrowright","arrowleft","arrowright","arrowright","arrowright"],"response_times":[3466,507,529,573,586,844,476,2269,419,287],"outcomes":[49,3,23,17,46,40,6,41,41,59],"screen_resolution":1,"trial_type":"horizons-trial","trial_index":213,"time_elapsed":2283312,"internal_node_id":"0.0-209.0"},{"horizon":5,"rewards_L":[62,61,68,54,58],"rewards_R":[60,42,37,63,59],"key_presses":["arrowleft","arrowleft","arrowleft","arrowright","arrowright"],"response_times":[714,471,361,516,413],"outcomes":[62,61,68,63,59],"screen_resolution":1,"trial_type":"horizons-trial","trial_index":214,"time_elapsed":2286548,"internal_node_id":"0.0-210.0"},{"horizon":5,"rewards_L":[83,72,78,48,73],"rewards_R":[59,57,68,53,57],"key_presses":["arrowleft","arrowright","arrowright","arrowleft","arrowright"],"response_times":[604,883,458,568,1177],"outcomes":[83,57,68,48,57],"screen_resolution":1,"trial_type":"horizons-trial","trial_index":215,"time_elapsed":2291413,"internal_node_id":"0.0-211.0"},{"horizon":10,"rewards_L":[52,57,43,66,59,59,53,66,65,57],"rewards_R":[61,62,65,71,67,50,59,74,63,65],"key_presses":["arrowleft","arrowright","arrowleft","arrowleft","arrowleft","arrowright","arrowleft","arrowleft","arrowleft","arrowleft"],"response_times":[500,362,334,595,1041,576,773,373,224,339],"outcomes":[52,62,43,66,59,50,53,66,65,57],"screen_resolution":1,"trial_type":"horizons-trial","trial_index":216,"time_elapsed":2297434,"internal_node_id":"0.0-212.0"},{"horizon":5,"rewards_L":[61,68,48,43,49],"rewards_R":[87,60,75,67,58],"key_presses":["arrowright","arrowleft","arrowright","arrowleft","arrowright"],"response_times":[659,307,469,1096,394],"outcomes":[87,68,75,43,58],"screen_resolution":1,"trial_type":"horizons-trial","trial_index":217,"time_elapsed":2301263,"internal_node_id":"0.0-213.0"},{"horizon":5,"rewards_L":[20,14,0,12,27],"rewards_R":[49,30,52,46,40],"key_presses":["arrowright","arrowleft","arrowleft","arrowright","arrowright"],"response_times":[897,472,396,451,984],"outcomes":[49,14,0,46,40],"screen_resolution":1,"trial_type":"horizons-trial","trial_index":218,"time_elapsed":2306069,"internal_node_id":"0.0-214.0"},{"horizon":5,"rewards_L":[65,75,58,74,75],"rewards_R":[52,52,54,72,48],"key_presses":["arrowright","arrowleft","arrowright","arrowright","arrowleft"],"response_times":[615,412,448,735,565],"outcomes":[52,75,54,72,75],"screen_resolution":1,"trial_type":"horizons-trial","trial_index":219,"time_elapsed":2309426,"internal_node_id":"0.0-215.0"},{"horizon":10,"rewards_L":[35,40,39,49,45,32,27,43,43,36],"rewards_R":[31,36,40,48,40,53,46,44,42,61],"key_presses":["arrowleft","arrowright","arrowright","arrowleft","arrowright","arrowleft","arrowright","arrowright","arrowright","arrowright"],"response_times":[488,487,483,382,420,1342,1592,817,285,316],"outcomes":[35,36,40,49,40,32,46,44,42,61],"screen_resolution":1,"trial_type":"horizons-trial","trial_index":220,"time_elapsed":2316761,"internal_node_id":"0.0-216.0"},{"horizon":5,"rewards_L":[67,61,66,68,61],"rewards_R":[52,43,46,61,49],"key_presses":["arrowleft","arrowright","arrowleft","arrowright","arrowleft"],"response_times":[568,479,491,463,555],"outcomes":[67,43,66,61,61],"screen_resolution":1,"trial_type":"horizons-trial","trial_index":221,"time_elapsed":2320020,"internal_node_id":"0.0-217.0"},{"horizon":5,"rewards_L":[56,43,39,35,42],"rewards_R":[67,78,54,58,62],"key_presses":["arrowright","arrowright","arrowleft","arrowleft","arrowright"],"response_times":[607,486,644,509,417],"outcomes":[67,78,39,35,62],"screen_resolution":1,"trial_type":"horizons-trial","trial_index":222,"time_elapsed":2323287,"internal_node_id":"0.0-218.0"},{"horizon":5,"rewards_L":[49,52,40,37,58],"rewards_R":[47,41,34,40,45],"key_presses":["arrowright","arrowleft","arrowright","arrowright","arrowleft"],"response_times":[665,447,644,684,891],"outcomes":[47,52,34,40,58],"screen_resolution":1,"trial_type":"horizons-trial","trial_index":223,"time_elapsed":2327285,"internal_node_id":"0.0-219.0"},{"horizon":10,"rewards_L":[54,48,62,64,73,46,70,63,58,63],"rewards_R":[74,70,70,74,55,63,78,61,59,54],"key_presses":["arrowright","arrowright","arrowleft","arrowright","arrowright","arrowleft","arrowright","arrowright","arrowright","arrowright"],"response_times":[593,583,496,509,826,679,471,388,734,262],"outcomes":[74,70,62,74,55,46,78,61,59,54],"screen_resolution":1,"trial_type":"horizons-trial","trial_index":224,"time_elapsed":2333405,"internal_node_id":"0.0-220.0"},{"horizon":5,"rewards_L":[63,72,63,64,56],"rewards_R":[55,59,65,73,52],"key_presses":["arrowleft","arrowright","arrowleft","arrowright","arrowright"],"response_times":[576,423,385,394,876],"outcomes":[63,59,63,73,52],"screen_resolution":1,"trial_type":"horizons-trial","trial_index":225,"time_elapsed":2336936,"internal_node_id":"0.0-221.0"},{"horizon":10,"rewards_L":[96,88,81,93,89,97,100,97,89,95],"rewards_R":[51,56,78,49,58,48,64,58,51,57],"key_presses":["arrowleft","arrowleft","arrowright","arrowleft","arrowleft","arrowright","arrowleft","arrowleft","arrowleft","arrowleft"],"response_times":[548,410,486,486,410,640,485,333,294,393],"outcomes":[96,88,78,93,89,48,100,97,89,95],"screen_resolution":1,"trial_type":"horizons-trial","trial_index":226,"time_elapsed":2342697,"internal_node_id":"0.0-222.0"},{"horizon":5,"rewards_L":[43,54,51,74,55],"rewards_R":[79,84,79,72,67],"key_presses":["arrowleft","arrowright","arrowleft","arrowleft","arrowright"],"response_times":[491,729,401,441,1652],"outcomes":[43,84,51,74,67],"screen_resolution":1,"trial_type":"horizons-trial","trial_index":227,"time_elapsed":2347139,"internal_node_id":"0.0-223.0"},{"horizon":5,"rewards_L":[48,65,70,64,47],"rewards_R":[66,59,61,63,63],"key_presses":["arrowright","arrowleft","arrowright","arrowleft","arrowright"],"response_times":[580,379,356,421,1064],"outcomes":[66,65,61,64,63],"screen_resolution":1,"trial_type":"horizons-trial","trial_index":228,"time_elapsed":2350487,"internal_node_id":"0.0-224.0"},{"horizon":10,"rewards_L":[62,59,51,52,56,69,75,59,61,73],"rewards_R":[62,65,58,51,80,65,54,62,53,60],"key_presses":["arrowleft","arrowright","arrowright","arrowleft","arrowright","arrowright","arrowleft","arrowleft","arrowright","arrowright"],"response_times":[432,507,511,398,1090,895,661,827,445,1695],"outcomes":[62,65,58,52,80,65,75,59,53,60],"screen_resolution":1,"trial_type":"horizons-trial","trial_index":229,"time_elapsed":2358605,"internal_node_id":"0.0-225.0"},{"horizon":10,"rewards_L":[34,42,57,58,40,43,47,39,56,41],"rewards_R":[59,56,67,56,49,43,52,50,52,53],"key_presses":["arrowright","arrowright","arrowleft","arrowleft","arrowright","arrowleft","arrowright","arrowright","arrowleft","arrowleft"],"response_times":[1382,557,357,406,276,2218,712,1674,469,616],"outcomes":[59,56,57,58,49,43,52,50,56,41],"screen_resolution":1,"trial_type":"horizons-trial","trial_index":230,"time_elapsed":2367957,"internal_node_id":"0.0-226.0"},{"horizon":10,"rewards_L":[45,42,42,37,51,41,39,33,48,43],"rewards_R":[20,25,8,6,22,19,27,15,14,6],"key_presses":["arrowright","arrowleft","arrowleft","arrowright","arrowleft","arrowleft","arrowright","arrowleft","arrowleft","arrowleft"],"response_times":[538,410,439,404,1186,781,1308,362,622,388],"outcomes":[20,42,42,6,51,41,27,33,48,43],"screen_resolution":1,"trial_type":"horizons-trial","trial_index":231,"time_elapsed":2374949,"internal_node_id":"0.0-227.0"},{"horizon":5,"rewards_L":[59,65,61,55,60],"rewards_R":[33,48,40,42,34],"key_presses":["arrowleft","arrowleft","arrowleft","arrowright","arrowleft"],"response_times":[448,374,863,520,805],"outcomes":[59,65,61,42,60],"screen_resolution":1,"trial_type":"horizons-trial","trial_index":232,"time_elapsed":2378519,"internal_node_id":"0.0-228.0"},{"horizon":10,"rewards_L":[49,38,55,52,47,40,47,44,52,57],"rewards_R":[58,66,59,38,68,64,66,56,52,55],"key_presses":["arrowright","arrowright","arrowright","arrowleft","arrowright","arrowright","arrowright","arrowleft","arrowright","arrowright"],"response_times":[572,444,741,511,869,1345,1242,701,739,516],"outcomes":[58,66,59,52,68,64,66,44,52,55],"screen_resolution":1,"trial_type":"horizons-trial","trial_index":233,"time_elapsed":2386955,"internal_node_id":"0.0-229.0"},{"horizon":5,"rewards_L":[45,35,55,50,49],"rewards_R":[51,51,61,78,57],"key_presses":["arrowright","arrowleft","arrowleft","arrowright","arrowright"],"response_times":[437,431,573,434,683],"outcomes":[51,35,55,78,57],"screen_resolution":1,"trial_type":"horizons-trial","trial_index":234,"time_elapsed":2391545,"internal_node_id":"0.0-230.0"},{"horizon":10,"rewards_L":[50,27,50,37,43,55,38,49,27,55],"rewards_R":[61,72,74,79,75,90,64,73,66,64],"key_presses":["arrowleft","arrowright","arrowright","arrowleft","arrowright","arrowright","arrowright","arrowright","arrowright","arrowright"],"response_times":[1821,382,375,501,532,688,900,340,281,234],"outcomes":[50,72,74,37,75,90,64,73,66,64],"screen_resolution":1,"trial_type":"horizons-trial","trial_index":235,"time_elapsed":2398221,"internal_node_id":"0.0-231.0"},{"horizon":5,"rewards_L":[61,53,53,61,66],"rewards_R":[99,92,98,87,87],"key_presses":["arrowright","arrowleft","arrowright","arrowleft","arrowright"],"response_times":[463,404,359,838,315],"outcomes":[99,53,98,61,87],"screen_resolution":1,"trial_type":"horizons-trial","trial_index":236,"time_elapsed":2401204,"internal_node_id":"0.0-232.0"},{"horizon":10,"rewards_L":[27,29,47,24,29,34,28,30,29,16],"rewards_R":[45,31,38,40,38,33,42,38,49,30],"key_presses":["arrowright","arrowright","arrowleft","arrowleft","arrowright","arrowright","arrowleft","arrowright","arrowright","arrowright"],"response_times":[840,769,344,385,568,547,1508,648,471,222],"outcomes":[45,31,47,24,38,33,28,38,49,30],"screen_resolution":1,"trial_type":"horizons-trial","trial_index":237,"time_elapsed":2422891,"internal_node_id":"0.0-233.0"},{"horizon":5,"rewards_L":[26,48,41,38,30],"rewards_R":[0,8,10,0,15],"key_presses":["arrowleft","arrowright","arrowright","arrowleft","arrowleft"],"response_times":[607,598,435,367,927],"outcomes":[26,8,10,38,30],"screen_resolution":1,"trial_type":"horizons-trial","trial_index":238,"time_elapsed":2426591,"internal_node_id":"0.0-234.0"},{"horizon":5,"rewards_L":[40,39,26,28,31],"rewards_R":[69,69,63,62,67],"key_presses":["arrowleft","arrowright","arrowleft","arrowleft","arrowleft"],"response_times":[606,340,339,402,767],"outcomes":[40,69,26,28,31],"screen_resolution":1,"trial_type":"horizons-trial","trial_index":239,"time_elapsed":2430058,"internal_node_id":"0.0-235.0"},{"horizon":10,"rewards_L":[63,63,65,56,59,43,64,50,51,63],"rewards_R":[49,50,54,39,50,58,46,45,41,61],"key_presses":["arrowright","arrowright","arrowleft","arrowleft","arrowleft","arrowleft","arrowright","arrowright","arrowright","arrowright"],"response_times":[520,383,391,1281,1466,4313,777,967,574,203],"outcomes":[49,50,65,56,59,43,46,45,41,61],"screen_resolution":1,"trial_type":"horizons-trial","trial_index":240,"time_elapsed":2441656,"internal_node_id":"0.0-236.0"},{"horizon":10,"rewards_L":[51,54,64,51,51,67,54,61,60,53],"rewards_R":[44,37,46,42,47,38,17,40,30,35],"key_presses":["arrowleft","arrowright","arrowright","arrowright","arrowleft","arrowright","arrowleft","arrowleft","arrowleft","arrowleft"],"response_times":[540,528,488,594,2814,726,638,271,195,175],"outcomes":[51,37,46,42,51,38,54,61,60,53],"screen_resolution":1,"trial_type":"horizons-trial","trial_index":241,"time_elapsed":2449614,"internal_node_id":"0.0-237.0"},{"horizon":5,"rewards_L":[52,84,69,70,63],"rewards_R":[36,29,50,36,52],"key_presses":["arrowleft","arrowleft","arrowright","arrowleft","arrowleft"],"response_times":[592,419,705,900,754],"outcomes":[52,84,50,70,63],"screen_resolution":1,"trial_type":"horizons-trial","trial_index":242,"time_elapsed":2453909,"internal_node_id":"0.0-238.0"},{"horizon":10,"rewards_L":[84,70,89,71,75,75,92,88,64,74],"rewards_R":[56,36,61,47,61,55,47,75,71,75],"key_presses":["arrowright","arrowleft","arrowright","arrowright","arrowleft","arrowleft","arrowleft","arrowleft","arrowleft","arrowleft"],"response_times":[531,295,367,492,942,1106,594,568,328,332],"outcomes":[56,70,61,47,75,75,92,88,64,74],"screen_resolution":1,"trial_type":"horizons-trial","trial_index":243,"time_elapsed":2461264,"internal_node_id":"0.0-239.0"},{"horizon":10,"rewards_L":[32,35,41,51,45,34,41,41,42,39],"rewards_R":[43,45,46,53,37,46,54,40,36,54],"key_presses":["arrowright","arrowright","arrowleft","arrowright","arrowright","arrowleft","arrowright","arrowright","arrowright","arrowright"],"response_times":[523,292,473,413,1871,783,553,469,357,224],"outcomes":[43,45,41,53,37,34,54,40,36,54],"screen_resolution":1,"trial_type":"horizons-trial","trial_index":244,"time_elapsed":2467794,"internal_node_id":"0.0-240.0"},{"horizon":5,"rewards_L":[56,45,46,64,64],"rewards_R":[50,34,45,60,28],"key_presses":["arrowleft","arrowleft","arrowright","arrowleft","arrowleft"],"response_times":[718,343,1155,657,802],"outcomes":[56,45,45,64,64],"screen_resolution":1,"trial_type":"horizons-trial","trial_index":245,"time_elapsed":2472005,"internal_node_id":"0.0-241.0"},{"horizon":5,"rewards_L":[53,47,58,62,71],"rewards_R":[58,58,61,55,48],"key_presses":["arrowleft","arrowright","arrowleft","arrowright","arrowright"],"response_times":[731,545,356,1750,1312],"outc