[{"success":true,"timeout":false,"failed_images":[],"failed_audio":[],"failed_video":[],"trial_type":"preload","trial_index":0,"time_elapsed":56,"internal_node_id":"0.0-0.0"},{"success":true,"trial_type":"fullscreen","trial_index":1,"time_elapsed":1781,"internal_node_id":"0.0-1.0"},{"rt":1854,"stimulus":"<p>你将开始实验 実験を開始します<b>Horizons task.</b></p><p>查看说明请按 “1” 键，跳过说明请按 “2” 键。説明を見るには “1” キーを押してください。スキップするには “2” キーを押してください。</p>","response":"1","trial_type":"html-keyboard-response","trial_index":2,"time_elapsed":3635,"internal_node_id":"0.0-2.0"},{"view_history":[{"page_index":0,"viewing_time":1128},{"page_index":1,"viewing_time":2320},{"page_index":0,"viewing_time":1395},{"page_index":1,"viewing_time":804},{"page_index":2,"viewing_time":1292},{"page_index":3,"viewing_time":874},{"page_index":4,"viewing_time":969},{"page_index":5,"viewing_time":1385},{"page_index":6,"viewing_time":960},{"page_index":7,"viewing_time":889},{"page_index":8,"viewing_time":1486},{"page_index":9,"viewing_time":1013}],"rt":14514,"trial_type":"instructions","trial_index":3,"time_elapsed":18150,"internal_node_id":"0.0-3.0-0.0"},{"horizon":5,"rewards_L":[44,57,74,72,62],"rewards_R":[31,33,24,39,29],"key_presses":["arrowright","arrowleft","arrowright","arrowright","arrowleft"],"response_times":[1703,300,310,299,1409],"outcomes":[31,57,24,39,62],"screen_resolution":1,"phase":"practice","trial_type":"horizons-trial","trial_index":4,"time_elapsed":23933,"internal_node_id":"0.0-3.0-1.0"},{"horizon":10,"rewards_L":[64,50,57,35,52,38,44,61,39,38],"rewards_R":[70,69,76,71,75,58,81,84,57,61],"key_presses":["arrowleft","arrowleft","arrowright","arrowright","arrowright","arrowright","arrowleft","arrowright","arrowright","arrowright"],"response_times":[637,608,460,446,1174,748,518,1104,588,410],"outcomes":[64,50,76,71,75,58,44,84,57,61],"screen_resolution":1,"phase":"practice","trial_type":"horizons-trial","trial_index":5,"time_elapsed":31330,"internal_node_id":"0.0-3.0-2.0"},{"view_history":[{"page_index":0,"viewing_time":638},{"page_index":1,"viewing_time":1799},{"page_index":2,"viewing_time":1325},{"page_index":3,"viewing_time":866}],"rt":4629,"trial_type":"instructions","trial_index":6,"time_elapsed":35960,"internal_node_id":"0.0-3.0-3.0"},{"responses":["true","false","true"],"num_errors":0,"rt":7923.399999856949,"trial_type":"horizons-comprehension","trial_index":7,"time_elapsed":43883,"internal_node_id":"0.0-3.0-4.0"},{"view_history":[{"page_index":0,"viewing_time":1225},{"page_index":1,"viewing_time":1513}],"rt":2739,"trial_type":"instructions","trial_index":8,"time_elapsed":46624,"internal_node_id":"0.0-4.0"},{"horizon":5,"rewards_L":[62,53,41,54,57],"rewards_R":[44,45,51,40,42],"key_presses":["arrowright","arrowright","arrowleft","arrowleft","arrowleft"],"response_times":[527,936,615,547,2957],"outcomes":[44,45,41,54,57],"screen_resolution":1,"trial_type":"horizons-trial","trial_index":9,"time_elapsed":53222,"internal_node_id":"0.0-5.0"},{"horizon":5,"rewards_L":[20,39,38,42,30],"rewards_R":[52,41,43,48,48],"key_presses":["arrowright","arrowleft","arrowleft","arrowright","arrowright"],"response_times":[489,405,450,451,595],"outcomes":[52,39,38,48,48],"screen_resolution":1,"trial_type":"horizons-trial","trial_index":10,"time_elapsed":56167,"internal_node_id":"0.0-6.0"},{"horizon":5,"rewards_L":[24,26,40,26,23],"rewards_R":[35,45,70,36,43],"key_presses":["arrowleft","arrowright","arrowright","arrowleft","arrowright"],"response_times":[453,522,476,602,1480],"outcomes":[24,45,70,26,43],"screen_resolution":1,"trial_type":"horizons-trial","trial_index":11,"time_elapsed":61703,"internal_node_id":"0.0-7.0"},{"horizon":10,"rewards_L":[23,39,46,36,28,44,44,32,38,30],"rewards_R":[39,51,55,37,37,31,32,39,36,49],"key_presses":["arrowright","arrowleft","arrowleft","arrowright","arrowright","arrowright","arrowleft","arrowleft","arrowright","arrowleft"],"response_times":[595,521,710,446,2150,760,1228,818,1172,2354],"outcomes":[39,39,46,37,37,31,44,32,36,30],"screen_resolution":1,"trial_type":"horizons-trial","trial_index":12,"time_elapsed":73513,"internal_node_id":"0.0-8.0"},{"horizon":5,"rewards_L":[22,28,28,29,42],"rewards_R":[39,44,41,39,31],"key_presses":["arrowright","arrowright","arrowright","arrowleft","arrowright"],"response_times":[505,367,352,446,1533],"outcomes":[39,44,41,29,31],"screen_resolution":1,"trial_type":"horizons-trial","trial_index":13,"time_elapsed":78091,"internal_node_id":"0.0-9.0"},{"horizon":10,"rewards_L":[63,65,53,63,70,55,79,83,67,71],"rewards_R":[70,53,58,62,69,70,60,67,71,55],"key_presses":["arrowright","arrowleft","arrowright","arrowleft","arrowleft","arrowright","arrowright","arrowright","arrowleft","arrowright"],"response_times":[1437,402,466,400,3817,766,652,1435,1505,2304],"outcomes":[70,65,58,63,70,70,60,67,67,55],"screen_resolution":1,"trial_type":"horizons-trial","trial_index":14,"time_elapsed":92960,"internal_node_id":"0.0-10.0"},{"horizon":10,"rewards_L":[56,60,54,54,42,53,43,51,46,36],"rewards_R":[54,40,44,28,28,48,32,39,42,39],"key_presses":["arrowright","arrowleft","arrowright","arrowright","arrowleft","arrowleft","arrowleft","arrowright","arrowleft","arrowleft"],"response_times":[525,580,700,510,478,492,1088,882,652,520],"outcomes":[54,60,44,28,42,53,43,39,46,36],"screen_resolution":1,"trial_type":"horizons-trial","trial_index":15,"time_elapsed":99929,"internal_node_id":"0.0-11.0"},{"horizon":10,"rewards_L":[49,59,36,68,53,63,62,44,61,45],"rewards_R":[48,50,34,34,40,44,26,36,36,35],"key_presses":["arrowleft","arrowleft","arrowleft","arrowright","arrowleft","arrowright","arrowright","arrowleft","arrowleft","arrowleft"],"response_times":[722,456,2688,504,1722,494,716,1150,414,486],"outcomes":[49,59,36,34,53,44,26,44,61,45],"screen_resolution":1,"trial_type":"horizons-trial","trial_index":16,"time_elapsed":110434,"internal_node_id":"0.0-12.0"},{"horizon":10,"rewards_L":[49,28,40,37,55,60,39,44,34,37],"rewards_R":[39,42,48,34,41,42,40,51,54,41],"key_presses":["arrowright","arrowleft","arrowright","arrowright","arrowleft","arrowleft","arrowleft","arrowright","arrowleft","arrowright"],"response_times":[533,952,914,1786,817,1072,2490,795,1191,2675],"outcomes":[39,28,48,34,55,60,39,51,34,41],"screen_resolution":1,"trial_type":"horizons-trial","trial_index":17,"time_elapsed":124201,"internal_node_id":"0.0-13.0"},{"horizon":10,"rewards_L":[62,53,78,77,57,81,61,65,65,75],"rewards_R":[38,38,45,48,35,36,46,58,46,35],"key_presses":["arrowleft","arrowleft","arrowright","arrowright","arrowright","arrowleft","arrowleft","arrowright","arrowleft","arrowright"],"response_times":[705,666,513,430,1824,1449,934,428,786,778],"outcomes":[62,53,45,48,35,81,61,58,65,35],"screen_resolution":1,"trial_type":"horizons-trial","trial_index":18,"time_elapsed":134723,"internal_node_id":"0.0-14.0"},{"horizon":5,"rewards_L":[63,64,84,70,59],"rewards_R":[43,55,37,51,43],"key_presses":["arrowright","arrowleft","arrowleft","arrowright","arrowleft"],"response_times":[485,392,598,449,1145],"outcomes":[43,64,84,51,59],"screen_resolution":1,"trial_type":"horizons-trial","trial_index":19,"time_elapsed":138625,"internal_node_id":"0.0-15.0"},{"horizon":10,"rewards_L":[38,42,41,27,35,36,38,38,40,46],"rewards_R":[38,47,40,62,56,47,50,39,45,44],"key_presses":["arrowleft","arrowright","arrowleft","arrowleft","arrowright","arrowleft","arrowright","arrowleft","arrowright","arrowright"],"response_times":[468,595,452,493,913,832,576,2352,409,589],"outcomes":[38,47,41,27,56,36,50,38,45,44],"screen_resolution":1,"trial_type":"horizons-trial","trial_index":20,"time_elapsed":147471,"internal_node_id":"0.0-16.0"},{"horizon":10,"rewards_L":[35,48,42,50,35,26,37,28,13,33],"rewards_R":[35,51,51,49,52,34,44,31,49,53],"key_presses":["arrowleft","arrowright","arrowright","arrowleft","arrowleft","arrowleft","arrowright","arrowright","arrowright","arrowright"],"response_times":[461,386,585,327,334,27456,604,634,402,641],"outcomes":[35,51,51,50,35,26,44,31,49,53],"screen_resolution":1,"trial_type":"horizons-trial","trial_index":21,"time_elapsed":180025,"internal_node_id":"0.0-17.0"},{"horizon":10,"rewards_L":[53,37,41,45,28,35,16,38,46,25],"rewards_R":[50,63,47,62,59,55,62,54,62,56],"key_presses":["arrowright","arrowleft","arrowleft","arrowleft","arrowright","arrowright","arrowright","arrowleft","arrowleft","arrowright"],"response_times":[497,309,458,722,534,365,563,658,566,388],"outcomes":[50,37,41,45,59,55,62,38,46,56],"screen_resolution":1,"trial_type":"horizons-trial","trial_index":22,"time_elapsed":185979,"internal_node_id":"0.0-18.0"},{"horizon":10,"rewards_L":[58,21,36,25,36,32,36,46,49,31],"rewards_R":[40,46,51,47,34,34,57,54,36,54],"key_presses":["arrowleft","arrowright","arrowleft","arrowright","arrowleft","arrowright","arrowleft","arrowright","arrowleft","arrowleft"],"response_times":[517,390,466,322,370,1224,586,485,1766,1111],"outcomes":[58,46,36,47,36,34,36,54,49,31],"screen_resolution":1,"trial_type":"horizons-trial","trial_index":23,"time_elapsed":193893,"internal_node_id":"0.0-19.0"},{"horizon":10,"rewards_L":[56,53,60,65,55,67,59,74,41,49],"rewards_R":[67,63,72,51,54,75,67,57,63,60],"key_presses":["arrowright","arrowright","arrowright","arrowleft","arrowleft","arrowleft","arrowleft","arrowright","arrowleft","arrowright"],"response_times":[429,428,412,409,322,1040,1962,1772,900,3418],"outcomes":[67,63,72,65,55,67,59,57,41,60],"screen_resolution":1,"trial_type":"horizons-trial","trial_index":24,"time_elapsed":205545,"internal_node_id":"0.0-20.0"},{"horizon":10,"rewards_L":[42,64,65,49,41,45,49,49,44,49],"rewards_R":[37,51,30,45,36,34,44,43,39,32],"key_presses":["arrowleft","arrowleft","arrowright","arrowright","arrowleft","arrowright","arrowleft","arrowright","arrowleft","arrowleft"],"response_times":[547,382,380,168,2043,684,816,598,838,663],"outcomes":[42,64,30,45,41,34,49,43,44,49],"screen_resolution":1,"trial_type":"horizons-trial","trial_index":25,"time_elapsed":213656,"internal_node_id":"0.0-21.0"},{"horizon":10,"rewards_L":[63,73,62,54,65,62,70,60,66,75],"rewards_R":[33,37,25,18,27,42,28,20,41,40],"key_presses":["arrowleft","arrowleft","arrowleft","arrowright","arrowleft","arrowright","arrowright","arrowright","arrowright","arrowleft"],"response_times":[621,433,500,348,1214,338,780,648,883,1326],"outcomes":[63,73,62,18,65,42,28,20,41,75],"screen_resolution":1,"trial_type":"horizons-trial","trial_index":26,"time_elapsed":221585,"internal_node_id":"0.0-22.0"},{"horizon":10,"rewards_L":[46,40,36,42,35,30,39,48,53,58],"rewards_R":[38,49,41,44,46,46,51,47,28,22],"key_presses":["arrowright","arrowleft","arrowright","arrowleft","arrowleft","arrowright","arrowleft","arrowright","arrowright","arrowright"],"response_times":[707,511,546,442,1328,782,1000,684,5700,1505],"outcomes":[38,40,41,42,35,46,39,47,28,22],"screen_resolution":1,"trial_type":"horizons-trial","trial_index":27,"time_elapsed":235496,"internal_node_id":"0.0-23.0"},{"horizon":5,"rewards_L":[27,40,39,33,48],"rewards_R":[55,52,64,53,69],"key_presses":["arrowright","arrowright","arrowright","arrowleft","arrowright"],"response_times":[583,410,1028,442,1254],"outcomes":[55,52,64,33,69],"screen_resolution":1,"trial_type":"horizons-trial","trial_index":28,"time_elapsed":239895,"internal_node_id":"0.0-24.0"},{"horizon":10,"rewards_L":[55,64,52,56,56,68,47,60,61,67],"rewards_R":[74,66,74,76,67,73,73,77,73,72],"key_presses":["arrowright","arrowright","arrowleft","arrowright","arrowleft","arrowleft","arrowleft","arrowright","arrowright","arrowright"],"response_times":[569,313,394,512,2083,1347,636,758,622,392],"outcomes":[74,66,52,76,56,68,47,77,73,72],"screen_resolution":1,"trial_type":"horizons-trial","trial_index":29,"time_elapsed":248453,"internal_node_id":"0.0-25.0"},{"horizon":5,"rewards_L":[21,22,13,26,15],"rewards_R":[46,42,32,29,46],"key_presses":["arrowright","arrowright","arrowright","arrowleft","arrowright"],"response_times":[609,384,840,390,1351],"outcomes":[46,42,32,26,46],"screen_resolution":1,"trial_type":"horizons-trial","trial_index":30,"time_elapsed":252953,"internal_node_id":"0.0-26.0"},{"horizon":10,"rewards_L":[51,57,43,50,39,53,51,56,36,46],"rewards_R":[43,39,36,37,32,34,53,37,42,58],"key_presses":["arrowleft","arrowleft","arrowright","arrowleft","arrowright","arrowright","arrowright","arrowleft","arrowright","arrowleft"],"response_times":[820,334,368,518,1006,551,971,671,1226,2248],"outcomes":[51,57,36,50,32,34,53,56,42,46],"screen_resolution":1,"trial_type":"horizons-trial","trial_index":31,"time_elapsed":262305,"internal_node_id":"0.0-27.0"},{"horizon":5,"rewards_L":[50,46,44,44,25],"rewards_R":[50,53,56,58,72],"key_presses":["arrowright","arrowright","arrowleft","arrowleft","arrowright"],"response_times":[613,378,384,302,1084],"outcomes":[50,53,44,44,72],"screen_resolution":1,"trial_type":"horizons-trial","trial_index":32,"time_elapsed":265862,"internal_node_id":"0.0-28.0"},{"horizon":5,"rewards_L":[36,33,48,55,46],"rewards_R":[15,2,15,6,23],"key_presses":["arrowright","arrowleft","arrowleft","arrowright","arrowleft"],"response_times":[602,474,716,658,1496],"outcomes":[15,33,48,6,46],"screen_resolution":1,"trial_type":"horizons-trial","trial_index":33,"time_elapsed":270901,"internal_node_id":"0.0-29.0"},{"horizon":10,"rewards_L":[11,24,31,25,13,19,22,43,7,26],"rewards_R":[41,40,59,33,40,38,59,34,32,52],"key_presses":["arrowleft","arrowright","arrowright","arrowleft","arrowleft","arrowleft","arrowleft","arrowright","arrowright","arrowright"],"response_times":[509,342,344,380,1132,491,394,330,358,1178],"outcomes":[11,40,59,25,13,19,22,34,32,52],"screen_resolution":1,"trial_type":"horizons-trial","trial_index":34,"time_elapsed":276864,"internal_node_id":"0.0-30.0"},{"horizon":10,"rewards_L":[39,18,24,33,38,17,24,46,39,43],"rewards_R":[35,44,43,49,27,46,44,45,36,40],"key_presses":["arrowright","arrowright","arrowright","arrowleft","arrowleft","arrowleft","arrowleft","arrowright","arrowright","arrowright"],"response_times":[516,299,336,388,208,1860,742,636,446,2408],"outcomes":[35,44,43,33,38,17,24,45,36,40],"screen_resolution":1,"trial_type":"horizons-trial","trial_index":35,"time_elapsed":285610,"internal_node_id":"0.0-31.0"},{"horizon":5,"rewards_L":[64,63,55,43,54],"rewards_R":[49,56,55,62,67],"key_presses":["arrowright","arrowright","arrowleft","arrowleft","arrowright"],"response_times":[499,394,431,498,1524],"outcomes":[49,56,55,43,67],"screen_resolution":1,"trial_type":"horizons-trial","trial_index":36,"time_elapsed":289586,"internal_node_id":"0.0-32.0"},{"horizon":10,"rewards_L":[30,36,39,39,36,43,50,36,34,33],"rewards_R":[46,36,48,31,29,39,27,43,29,32],"key_presses":["arrowleft","arrowright","arrowright","arrowleft","arrowleft","arrowleft","arrowleft","arrowright","arrowright","arrowright"],"response_times":[551,384,386,384,470,678,668,490,410,2262],"outcomes":[30,36,48,39,36,43,50,43,29,32],"screen_resolution":1,"trial_type":"horizons-trial","trial_index":37,"time_elapsed":296782,"internal_node_id":"0.0-33.0"},{"horizon":5,"rewards_L":[43,42,38,31,39],"rewards_R":[12,28,20,18,9],"key_presses":["arrowleft","arrowright","arrowleft","arrowright","arrowleft"],"response_times":[510,302,346,350,1372],"outcomes":[43,28,38,18,39],"screen_resolution":1,"trial_type":"horizons-trial","trial_index":38,"time_elapsed":300421,"internal_node_id":"0.0-34.0"},{"horizon":5,"rewards_L":[37,37,48,44,61],"rewards_R":[31,35,28,34,36],"key_presses":["arrowright","arrowleft","arrowleft","arrowright","arrowleft"],"response_times":[465,293,561,330,1820],"outcomes":[31,37,48,34,61],"screen_resolution":1,"trial_type":"horizons-trial","trial_index":39,"time_elapsed":304467,"internal_node_id":"0.0-35.0"},{"horizon":10,"rewards_L":[45,55,47,43,38,36,28,38,44,34],"rewards_R":[66,64,60,38,74,76,60,66,48,57],"key_presses":["arrowright","arrowright","arrowright","arrowleft","arrowleft","arrowright","arrowleft","arrowright","arrowright","arrowright"],"response_times":[527,356,314,420,388,1308,372,595,139,134],"outcomes":[66,64,60,43,38,76,28,66,48,57],"screen_resolution":1,"trial_type":"horizons-trial","trial_index":40,"time_elapsed":309931,"internal_node_id":"0.0-36.0"},{"horizon":10,"rewards_L":[27,39,43,32,20,43,32,44,35,32],"rewards_R":[10,9,9,12,0,4,1,2,17,9],"key_presses":["arrowright","arrowleft","arrowright","arrowleft","arrowright","arrowright","arrowleft","arrowleft","arrowright","arrowleft"],"response_times":[492,330,424,334,1326,677,429,371,586,648],"outcomes":[10,39,9,32,0,4,32,44,17,32],"screen_resolution":1,"trial_type":"horizons-trial","trial_index":41,"time_elapsed":316811,"internal_node_id":"0.0-37.0"},{"horizon":10,"rewards_L":[40,34,45,43,49,53,38,50,32,42],"rewards_R":[28,36,33,42,24,36,43,9,23,30],"key_presses":["arrowright","arrowleft","arrowright","arrowleft","arrowright","arrowleft","arrowright","arrowleft","arrowright","arrowleft"],"response_times":[525,542,1238,418,1446,352,874,193,2889,1775],"outcomes":[28,34,33,43,24,53,43,50,23,42],"screen_resolution":1,"trial_type":"horizons-trial","trial_index":42,"time_elapsed":327639,"internal_node_id":"0.0-38.0"},{"horizon":10,"rewards_L":[39,46,41,36,35,37,41,30,49,39],"rewards_R":[51,44,40,32,37,37,44,53,34,51],"key_presses":["arrowright","arrowleft","arrowleft","arrowleft","arrowright","arrowright","arrowright","arrowleft","arrowleft","arrowleft"],"response_times":[553,288,386,672,415,1493,428,584,682,1400],"outcomes":[51,46,41,36,37,37,44,30,49,39],"screen_resolution":1,"trial_type":"horizons-trial","trial_index":43,"time_elapsed":335514,"internal_node_id":"0.0-39.0"},{"horizon":10,"rewards_L":[37,33,44,41,58,49,39,45,50,34],"rewards_R":[25,34,37,40,38,40,36,49,34,36],"key_presses":["arrowleft","arrowright","arrowright","arrowright","arrowleft","arrowleft","arrowright","arrowleft","arrowleft","arrowleft"],"response_times":[432,313,384,316,385,1150,487,575,530,310],"outcomes":[37,34,37,40,58,49,36,45,50,34],"screen_resolution":1,"trial_type":"horizons-trial","trial_index":44,"time_elapsed":341186,"internal_node_id":"0.0-40.0"},{"horizon":5,"rewards_L":[79,80,86,90,87],"rewards_R":[52,75,55,61,59],"key_presses":["arrowleft","arrowright","arrowleft","arrowright","arrowleft"],"response_times":[585,326,454,443,1154],"outcomes":[79,75,86,61,87],"screen_resolution":1,"trial_type":"horizons-trial","trial_index":45,"time_elapsed":344862,"internal_node_id":"0.0-41.0"},{"horizon":10,"rewards_L":[46,45,40,44,44,33,38,34,51,34],"rewards_R":[48,56,52,58,61,49,59,59,42,49],"key_presses":["arrowright","arrowleft","arrowright","arrowleft","arrowright","arrowleft","arrowright","arrowleft","arrowleft","arrowright"],"response_times":[491,268,300,216,293,652,1488,583,536,1387],"outcomes":[48,45,52,44,61,33,59,34,51,49],"screen_resolution":1,"trial_type":"horizons-trial","trial_index":46,"time_elapsed":352295,"internal_node_id":"0.0-42.0"},{"horizon":10,"rewards_L":[70,85,84,83,69,79,91,77,83,93],"rewards_R":[54,73,61,58,63,60,66,57,56,66],"key_presses":["arrowleft","arrowright","arrowright","arrowleft","arrowleft","arrowright","arrowleft","arrowright","arrowleft","arrowleft"],"response_times":[641,504,386,412,642,388,472,864,305,504],"outcomes":[70,73,61,83,69,60,91,57,83,93],"screen_resolution":1,"trial_type":"horizons-trial","trial_index":47,"time_elapsed":358490,"internal_node_id":"0.0-43.0"},{"horizon":5,"rewards_L":[57,60,61,80,48],"rewards_R":[57,65,57,75,60],"key_presses":["arrowleft","arrowright","arrowright","arrowleft","arrowleft"],"response_times":[566,332,642,326,2548],"outcomes":[57,65,57,80,48],"screen_resolution":1,"trial_type":"horizons-trial","trial_index":48,"time_elapsed":363539,"internal_node_id":"0.0-44.0"},{"horizon":5,"rewards_L":[40,34,32,41,45],"rewards_R":[35,40,40,43,36],"key_presses":["arrowleft","arrowleft","arrowright","arrowleft","arrowleft"],"response_times":[552,366,740,492,2046],"outcomes":[40,34,40,41,45],"screen_resolution":1,"trial_type":"horizons-trial","trial_index":49,"time_elapsed":368939,"internal_node_id":"0.0-45.0"},{"horizon":5,"rewards_L":[56,55,52,35,47],"rewards_R":[27,36,24,36,48],"key_presses":["arrowright","arrowleft","arrowright","arrowleft","arrowleft"],"response_times":[509,284,458,376,1948],"outcomes":[27,55,24,35,47],"screen_resolution":1,"trial_type":"horizons-trial","trial_index":50,"time_elapsed":373339,"internal_node_id":"0.0-46.0"},{"horizon":10,"rewards_L":[66,54,63,64,61,51,65,50,63,63],"rewards_R":[79,69,74,86,71,86,67,72,77,73],"key_presses":["arrowright","arrowright","arrowleft","arrowright","arrowleft","arrowleft","arrowright","arrowright","arrowleft","arrowright"],"response_times":[535,317,342,452,905,424,400,831,290,560],"outcomes":[79,69,63,86,61,51,67,72,63,73],"screen_resolution":1,"trial_type":"horizons-trial","trial_index":51,"time_elapsed":379701,"internal_node_id":"0.0-47.0"},{"horizon":5,"rewards_L":[29,35,28,52,30],"rewards_R":[70,64,62,52,73],"key_presses":["arrowright","arrowleft","arrowleft","arrowleft","arrowright"],"response_times":[521,260,385,435,679],"outcomes":[70,35,28,52,73],"screen_resolution":1,"trial_type":"horizons-trial","trial_index":52,"time_elapsed":383849,"internal_node_id":"0.0-48.0"},{"horizon":10,"rewards_L":[34,40,33,19,24,30,27,28,32,35],"rewards_R":[43,44,36,38,52,53,45,39,31,26],"key_presses":["arrowright","arrowleft","arrowright","arrowleft","arrowright","arrowleft","arrowleft","arrowright","arrowright","arrowright"],"response_times":[725,254,371,299,381,241,1264,240,974,5446],"outcomes":[43,40,36,19,52,30,27,39,31,26],"screen_resolution":1,"trial_type":"horizons-trial","trial_index":53,"time_elapsed":394797,"internal_node_id":"0.0-49.0"},{"horizon":10,"rewards_L":[42,34,40,44,55,49,54,31,56,55],"rewards_R":[36,52,42,43,42,51,32,36,41,30],"key_presses":["arrowleft","arrowright","arrowleft","arrowright","arrowleft","arrowright","arrowleft","arrowright","arrowleft","arrowleft"],"response_times":[481,285,295,241,605,222,628,162,712,3588],"outcomes":[42,52,40,43,55,51,54,36,56,55],"screen_resolution":1,"trial_type":"horizons-trial","trial_index":54,"time_elapsed":402560,"internal_node_id":"0.0-50.0"},{"horizon":10,"rewards_L":[35,50,48,46,48,53,54,33,50,45],"rewards_R":[44,44,47,49,55,40,34,32,29,42],"key_presses":["arrowright","arrowright","arrowleft","arrowleft","arrowleft","arrowleft","arrowright","arrowright","arrowright","arrowleft"],"response_times":[543,262,386,156,1592,406,474,318,390,420],"outcomes":[44,44,48,46,48,53,34,32,29,45],"screen_resolution":1,"trial_type":"horizons-trial","trial_index":55,"time_elapsed":408258,"internal_node_id":"0.0-51.0"},{"horizon":5,"rewards_L":[82,90,83,76,91],"rewards_R":[68,56,52,68,65],"key_presses":["arrowright","arrowleft","arrowleft","arrowright","arrowleft"],"response_times":[539,244,388,342,1504],"outcomes":[68,90,83,68,91],"screen_resolution":1,"trial_type":"horizons-trial","trial_index":56,"time_elapsed":411999,"internal_node_id":"0.0-52.0"},{"horizon":5,"rewards_L":[71,68,63,45,48],"rewards_R":[59,45,72,69,55],"key_presses":["arrowright","arrowright","arrowleft","arrowleft","arrowleft"],"response_times":[519,330,314,336,4630],"outcomes":[59,45,63,45,48],"screen_resolution":1,"trial_type":"horizons-trial","trial_index":57,"time_elapsed":418923,"internal_node_id":"0.0-53.0"},{"horizon":5,"rewards_L":[49,46,32,36,29],"rewards_R":[75,71,59,84,60],"key_presses":["arrowleft","arrowright","arrowleft","arrowright","arrowright"],"response_times":[547,294,320,260,1651],"outcomes":[49,71,32,84,60],"screen_resolution":1,"trial_type":"horizons-trial","trial_index":58,"time_elapsed":422543,"internal_node_id":"0.0-54.0"},{"horizon":5,"rewards_L":[59,67,67,60,50],"rewards_R":[36,61,39,30,45],"key_presses":["arrowleft","arrowright","arrowright","arrowright","arrowleft"],"response_times":[558,280,390,611,2210],"outcomes":[59,61,39,30,50],"screen_resolution":1,"trial_type":"horizons-trial","trial_index":59,"time_elapsed":427735,"internal_node_id":"0.0-55.0"},{"horizon":10,"rewards_L":[75,67,63,55,51,62,41,55,52,57],"rewards_R":[37,38,48,26,37,12,54,46,31,26],"key_presses":["arrowleft","arrowright","arrowleft","arrowright","arrowleft","arrowright","arrowright","arrowright","arrowright","arrowleft"],"response_times":[529,275,359,283,358,320,932,574,550,2092],"outcomes":[75,38,63,26,51,12,54,46,31,57],"screen_resolution":1,"trial_type":"horizons-trial","trial_index":60,"time_elapsed":434965,"internal_node_id":"0.0-56.0"},{"horizon":10,"rewards_L":[22,7,18,20,20,23,17,18,16,14],"rewards_R":[29,47,37,34,57,37,20,28,23,48],"key_presses":["arrowright","arrowleft","arrowleft","arrowleft","arrowright","arrowleft","arrowleft","arrowleft","arrowright","arrowright"],"response_times":[531,336,334,342,410,450,396,367,316,2092],"outcomes":[29,7,18,20,57,23,17,18,23,48],"screen_resolution":1,"trial_type":"horizons-trial","trial_index":61,"time_elapsed":441574,"internal_node_id":"0.0-57.0"},{"horizon":5,"rewards_L":[63,55,55,51,54],"rewards_R":[51,45,39,43,54],"key_presses":["arrowleft","arrowright","arrowright","arrowright","arrowleft"],"response_times":[471,273,474,894,2520],"outcomes":[63,45,39,43,54],"screen_resolution":1,"trial_type":"horizons-trial","trial_index":62,"time_elapsed":447110,"internal_node_id":"0.0-58.0"},{"horizon":10,"rewards_L":[29,30,22,31,32,39,29,32,33,29],"rewards_R":[49,38,25,41,36,38,41,46,36,43],"key_presses":["arrowleft","arrowright","arrowleft","arrowright","arrowleft","arrowright","arrowleft","arrowright","arrowright","arrowright"],"response_times":[531,499,577,301,714,346,504,588,716,134],"outcomes":[29,38,22,41,32,38,29,46,36,43],"screen_resolution":1,"trial_type":"horizons-trial","trial_index":63,"time_elapsed":452554,"internal_node_id":"0.0-59.0"},{"horizon":10,"rewards_L":[63,73,71,75,56,58,69,74,61,53],"rewards_R":[52,56,57,51,60,66,59,54,65,61],"key_presses":["arrowright","arrowleft","arrowright","arrowright","arrowleft","arrowright","arrowleft","arrowleft","arrowleft","arrowleft"],"response_times":[450,300,540,378,1543,1236,692,518,1077,2197],"outcomes":[52,73,57,51,56,66,69,74,61,53],"screen_resolution":1,"trial_type":"horizons-trial","trial_index":64,"time_elapsed":462186,"internal_node_id":"0.0-60.0"},{"horizon":10,"rewards_L":[49,29,40,24,48,49,43,48,30,45],"rewards_R":[24,21,49,29,38,32,38,27,23,15],"key_presses":["arrowleft","arrowleft","arrowright","arrowright","arrowright","arrowleft","arrowright","arrowleft","arrowleft","arrowleft"],"response_times":[628,300,382,275,1289,2306,818,524,704,244],"outcomes":[49,29,49,29,38,49,38,48,30,45],"screen_resolution":1,"trial_type":"horizons-trial","trial_index":65,"time_elapsed":470164,"internal_node_id":"0.0-61.0"},{"horizon":5,"rewards_L":[54,37,49,54,48],"rewards_R":[65,72,50,50,60],"key_presses":["arrowright","arrowright","arrowright","arrowleft","arrowright"],"response_times":[536,410,356,409,1279],"outcomes":[65,72,50,54,60],"screen_resolution":1,"trial_type":"horizons-trial","trial_index":66,"time_elapsed":473835,"internal_node_id":"0.0-62.0"},{"horizon":10,"rewards_L":[36,32,37,28,20,30,10,30,31,10],"rewards_R":[50,45,47,24,45,47,37,49,34,37],"key_presses":["arrowright","arrowleft","arrowleft","arrowleft","arrowright","arrowright","arrowright","arrowleft","arrowright","arrowright"],"response_times":[479,284,324,394,914,622,582,906,416,512],"outcomes":[50,32,37,28,45,47,37,30,34,37],"screen_resolution":1,"trial_type":"horizons-trial","trial_index":67,"time_elapsed":480047,"internal_node_id":"0.0-63.0"},{"horizon":10,"rewards_L":[35,23,28,25,21,35,20,12,24,31],"rewards_R":[37,30,17,53,45,38,47,39,36,19],"key_presses":["arrowleft","arrowleft","arrowright","arrowright","arrowright","arrowright","arrowright","arrowright","arrowleft","arrowright"],"response_times":[469,354,344,372,724,572,356,446,934,1090],"outcomes":[35,23,17,53,45,38,47,39,24,19],"screen_resolution":1,"trial_type":"horizons-trial","trial_index":68,"time_elapsed":486332,"internal_node_id":"0.0-64.0"},{"horizon":5,"rewards_L":[23,20,23,21,34],"rewards_R":[32,47,47,45,43],"key_presses":["arrowright","arrowleft","arrowright","arrowleft","arrowright"],"response_times":[483,306,301,500,1094],"outcomes":[32,20,47,21,43],"screen_resolution":1,"trial_type":"horizons-trial","trial_index":69,"time_elapsed":489797,"internal_node_id":"0.0-65.0"},{"horizon":5,"rewards_L":[57,67,54,69,57],"rewards_R":[63,60,52,50,60],"key_presses":["arrowleft","arrowleft","arrowright","arrowleft","arrowleft"],"response_times":[478,322,380,656,1073],"outcomes":[57,67,52,69,57],"screen_resolution":1,"trial_type":"horizons-trial","trial_index":70,"time_elapsed":493373,"internal_node_id":"0.0-66.0"},{"horizon":5,"rewards_L":[50,41,41,59,57],"rewards_R":[50,50,29,46,37],"key_presses":["arrowleft","arrowright","arrowleft","arrowright","arrowright"],"response_times":[485,272,331,347,1964],"outcomes":[50,50,41,46,37],"screen_resolution":1,"trial_type":"horizons-trial","trial_index":71,"time_elapsed":497663,"internal_node_id":"0.0-67.0"},{"horizon":10,"rewards_L":[59,59,56,61,59,59,65,48,48,42],"rewards_R":[41,41,51,48,45,49,31,41,41,46],"key_presses":["arrowleft","arrowleft","arrowright","arrowleft","arrowright","arrowleft","arrowright","arrowleft","arrowright","arrowleft"],"response_times":[443,317,333,445,340,446,448,298,976,1816],"outcomes":[59,59,51,61,45,59,31,48,41,42],"screen_resolution":1,"trial_type":"horizons-trial","trial_index":72,"time_elapsed":504103,"internal_node_id":"0.0-68.0"},{"horizon":10,"rewards_L":[42,45,28,19,20,33,39,16,42,16],"rewards_R":[41,40,43,39,37,51,36,36,39,36],"key_presses":["arrowright","arrowright","arrowright","arrowleft","arrowright","arrowleft","arrowleft","arrowleft","arrowright","arrowright"],"response_times":[805,395,407,398,816,327,704,872,422,606],"outcomes":[41,40,43,19,37,33,39,16,39,36],"screen_resolution":1,"trial_type":"horizons-trial","trial_index":73,"time_elapsed":510486,"internal_node_id":"0.0-69.0"},{"horizon":10,"rewards_L":[67,65,57,73,60,57,62,58,48,63],"rewards_R":[61,51,49,48,47,47,54,58,53,49],"key_presses":["arrowleft","arrowright","arrowright","arrowright","arrowleft","arrowleft","arrowleft","arrowright","arrowright","arrowleft"],"response_times":[493,356,409,1278,483,798,1448,414,554,3126],"outcomes":[67,51,49,48,60,57,62,58,53,63],"screen_resolution":1,"trial_type":"horizons-trial","trial_index":74,"time_elapsed":521102,"internal_node_id":"0.0-70.0"},{"horizon":10,"rewards_L":[65,70,66,58,74,67,71,57,55,60],"rewards_R":[58,61,51,63,60,50,38,65,68,65],"key_presses":["arrowleft","arrowleft","arrowleft","arrowright","arrowright","arrowright","arrowleft","arrowright","arrowleft","arrowleft"],"response_times":[164861,410,378,448,1315,502,634,342,582,944],"outcomes":[65,70,66,63,60,50,71,65,55,60],"screen_resolution":1,"trial_type":"horizons-trial","trial_index":75,"time_elapsed":692083,"internal_node_id":"0.0-71.0"},{"horizon":10,"rewards_L":[68,57,70,69,43,46,62,67,70,50],"rewards_R":[41,55,66,52,59,55,52,54,56,47],"key_presses":["arrowleft","arrowright","arrowleft","arrowright","arrowright","arrowright","arrowleft","arrowleft","arrowleft","arrowleft"],"response_times":[529,386,374,278,704,340,398,318,784,552],"outcomes":[68,55,70,52,59,55,62,67,70,50],"screen_resolution":1,"trial_type":"horizons-trial","trial_index":76,"time_elapsed":697687,"internal_node_id":"0.0-72.0"},{"horizon":10,"rewards_L":[45,49,49,38,41,51,40,41,54,51],"rewards_R":[66,56,53,62,64,47,62,58,70,59],"key_presses":["arrowright","arrowleft","arrowleft","arrowleft","arrowleft","arrowleft","arrowright","arrowright","arrowright","arrowright"],"response_times":[485,289,444,287,197,566,339,248,298,1754],"outcomes":[66,49,49,38,41,51,62,58,70,59],"screen_resolution":1,"trial_type":"horizons-trial","trial_index":77,"time_elapsed":703119,"internal_node_id":"0.0-73.0"},{"horizon":5,"rewards_L":[21,32,54,25,32],"rewards_R":[59,60,81,59,60],"key_presses":["arrowright","arrowright","arrowright","arrowleft","arrowright"],"response_times":[492,293,676,414,668],"outcomes":[59,60,81,25,60],"screen_resolution":1,"trial_type":"horizons-trial","trial_index":78,"time_elapsed":706468,"internal_node_id":"0.0-74.0"},{"horizon":5,"rewards_L":[23,24,38,20,26],"rewards_R":[67,43,61,52,50],"key_presses":["arrowleft","arrowright","arrowleft","arrowright","arrowright"],"response_times":[465,358,360,218,1082],"outcomes":[23,43,38,52,50],"screen_resolution":1,"trial_type":"horizons-trial","trial_index":79,"time_elapsed":710082,"internal_node_id":"0.0-75.0"},{"horizon":5,"rewards_L":[51,56,61,63,62],"rewards_R":[41,48,56,42,44],"key_presses":["arrowleft","arrowright","arrowright","arrowleft","arrowleft"],"response_times":[491,278,404,288,1764],"outcomes":[51,48,56,63,62],"screen_resolution":1,"trial_type":"horizons-trial","trial_index":80,"time_elapsed":714009,"internal_node_id":"0.0-76.0"},{"horizon":5,"rewards_L":[52,52,65,66,51],"rewards_R":[84,70,60,74,82],"key_presses":["arrowleft","arrowright","arrowleft","arrowright","arrowright"],"response_times":[417,244,294,236,495],"outcomes":[52,70,65,74,82],"screen_resolution":1,"trial_type":"horizons-trial","trial_index":81,"time_elapsed":716587,"internal_node_id":"0.0-77.0"},{"horizon":5,"rewards_L":[37,30,36,47,43],"rewards_R":[37,38,35,34,25],"key_presses":["arrowleft","arrowright","arrowright","arrowright","arrowleft"],"response_times":[406,214,392,578,2084],"outcomes":[37,38,35,34,43],"screen_resolution":1,"trial_type":"horizons-trial","trial_index":82,"time_elapsed":721377,"internal_node_id":"0.0-78.0"},{"horizon":10,"rewards_L":[46,47,42,50,47,39,37,48,39,45],"rewards_R":[40,57,34,39,32,28,36,28,26,33],"key_presses":["arrowleft","arrowleft","arrowleft","arrowright","arrowright","arrowright","arrowleft","arrowright","arrowleft","arrowleft"],"response_times":[458,350,216,308,147,717,18995,291,2062,436],"outcomes":[46,47,42,39,32,28,37,28,39,45],"screen_resolution":1,"trial_type":"horizons-trial","trial_index":83,"time_elapsed":746129,"internal_node_id":"0.0-79.0"},{"horizon":5,"rewards_L":[58,39,47,42,43],"rewards_R":[53,42,50,41,60],"key_presses":["arrowright","arrowleft","arrowright","arrowright","arrowright"],"response_times":[499,264,306,467,731],"outcomes":[53,39,50,41,60],"screen_resolution":1,"trial_type":"horizons-trial","trial_index":84,"time_elapsed":749335,"internal_node_id":"0.0-80.0"},{"horizon":5,"rewards_L":[33,59,47,30,31],"rewards_R":[25,38,55,18,43],"key_presses":["arrowleft","arrowleft","arrowright","arrowright","arrowleft"],"response_times":[437,286,444,378,2466],"outcomes":[33,59,55,18,31],"screen_resolution":1,"trial_type":"horizons-trial","trial_index":85,"time_elapsed":755121,"internal_node_id":"0.0-81.0"},{"horizon":10,"rewards_L":[27,19,21,32,37,18,19,45,36,34],"rewards_R":[58,55,70,80,59,64,45,60,77,66],"key_presses":["arrowright","arrowleft","arrowleft","arrowright","arrowleft","arrowright","arrowright","arrowright","arrowright","arrowright"],"response_times":[487,352,398,364,723,303,499,433,316,663],"outcomes":[58,19,21,80,37,64,45,60,77,66],"screen_resolution":1,"trial_type":"horizons-trial","trial_index":86,"time_elapsed":760392,"internal_node_id":"0.0-82.0"},{"horizon":5,"rewards_L":[56,49,67,80,57],"rewards_R":[57,53,65,61,48],"key_presses":["arrowleft","arrowleft","arrowleft","arrowright","arrowleft"],"response_times":[375,298,304,318,1648],"outcomes":[56,49,67,61,57],"screen_resolution":1,"trial_type":"horizons-trial","trial_index":87,"time_elapsed":763877,"internal_node_id":"0.0-83.0"},{"horizon":5,"rewards_L":[44,31,36,46,50],"rewards_R":[39,25,21,34,40],"key_presses":["arrowright","arrowright","arrowleft","arrowleft","arrowleft"],"response_times":[618,340,352,338,1326],"outcomes":[39,25,36,46,50],"screen_resolution":1,"trial_type":"horizons-trial","trial_index":88,"time_elapsed":770314,"internal_node_id":"0.0-84.0"},{"horizon":5,"rewards_L":[52,34,25,41,41],"rewards_R":[17,19,22,24,27],"key_presses":["arrowleft","arrowleft","arrowleft","arrowright","arrowleft"],"response_times":[593,248,452,328,762],"outcomes":[52,34,25,24,41],"screen_resolution":1,"trial_type":"horizons-trial","trial_index":89,"time_elapsed":773203,"internal_node_id":"0.0-85.0"},{"horizon":5,"rewards_L":[42,48,33,43,48],"rewards_R":[31,18,30,29,26],"key_presses":["arrowleft","arrowright","arrowright","arrowright","arrowleft"],"response_times":[4610,316,341,550,536],"outcomes":[42,18,30,29,48],"screen_resolution":1,"trial_type":"horizons-trial","trial_index":90,"time_elapsed":780135,"internal_node_id":"0.0-86.0"},{"horizon":5,"rewards_L":[54,40,49,44,36],"rewards_R":[33,45,36,45,51],"key_presses":["arrowright","arrowleft","arrowright","arrowleft","arrowleft"],"response_times":[861,254,318,281,1169],"outcomes":[33,40,36,44,36],"screen_resolution":1,"trial_type":"horizons-trial","trial_index":91,"time_elapsed":783701,"internal_node_id":"0.0-87.0"},{"horizon":10,"rewards_L":[36,39,35,40,47,30,39,30,41,40],"rewards_R":[86,68,65,80,66,81,54,67,85,82],"key_presses":["arrowright","arrowleft","arrowleft","arrowright","arrowright","arrowleft","arrowright","arrowleft","arrowright","arrowright"],"response_times":[403,260,344,292,340,341,404,288,234,426],"outcomes":[86,39,35,80,66,30,54,30,85,82],"screen_resolution":1,"trial_type":"horizons-trial","trial_index":92,"time_elapsed":787663,"internal_node_id":"0.0-88.0"},{"horizon":5,"rewards_L":[75,54,64,62,62],"rewards_R":[64,74,80,70,66],"key_presses":["arrowleft","arrowleft","arrowright","arrowright","arrowright"],"response_times":[414,270,296,281,878],"outcomes":[75,54,80,70,66],"screen_resolution":1,"trial_type":"horizons-trial","trial_index":93,"time_elapsed":790721,"internal_node_id":"0.0-89.0"},{"horizon":10,"rewards_L":[31,36,29,38,38,39,31,39,46,40],"rewards_R":[3,28,0,13,19,15,21,3,18,0],"key_presses":["arrowleft","arrowright","arrowright","arrowright","arrowright","arrowleft","arrowleft","arrowleft","arrowleft","arrowleft"],"response_times":[509,318,304,550,303,488,252,190,698,378],"outcomes":[31,28,0,13,19,39,31,39,46,40],"screen_resolution":1,"trial_type":"horizons-trial","trial_index":94,"time_elapsed":795437,"internal_node_id":"0.0-90.0"},{"horizon":5,"rewards_L":[54,64,62,65,70],"rewards_R":[35,51,50,47,53],"key_presses":["arrowleft","arrowleft","arrowleft","arrowright","arrowleft"],"response_times":[415,306,358,288,476],"outcomes":[54,64,62,47,70],"screen_resolution":1,"trial_type":"horizons-trial","trial_index":95,"time_elapsed":797961,"internal_node_id":"0.0-91.0"},{"horizon":5,"rewards_L":[64,60,59,56,44],"rewards_R":[76,82,71,88,70],"key_presses":["arrowright","arrowleft","arrowleft","arrowright","arrowright"],"response_times":[420,279,327,321,874],"outcomes":[76,60,59,88,70],"screen_resolution":1,"trial_type":"horizons-trial","trial_index":96,"time_elapsed":800906,"internal_node_id":"0.0-92.0"},{"horizon":10,"rewards_L":[49,42,43,36,41,41,30,32,19,32],"rewards_R":[26,23,14,23,11,19,26,29,29,6],"key_presses":["arrowleft","arrowleft","arrowleft","arrowright","arrowright","arrowright","arrowright","arrowleft","arrowleft","arrowleft"],"response_times":[380,190,200,340,166,169,338,408,303,874],"outcomes":[49,42,43,23,11,19,26,32,19,32],"screen_resolution":1,"trial_type":"horizons-trial","trial_index":97,"time_elapsed":805117,"internal_node_id":"0.0-93.0"},{"horizon":5,"rewards_L":[45,52,50,56,70],"rewards_R":[48,31,29,40,24],"key_presses":["arrowleft","arrowleft","arrowright","arrowright","arrowleft"],"response_times":[421,206,382,290,786],"outcomes":[45,52,29,40,70],"screen_resolution":1,"trial_type":"horizons-trial","trial_index":98,"time_elapsed":807991,"internal_node_id":"0.0-94.0"},{"horizon":10,"rewards_L":[43,55,68,59,37,56,54,55,54,51],"rewards_R":[57,60,51,61,63,51,53,51,51,62],"key_presses":["arrowleft","arrowright","arrowright","arrowleft","arrowright","arrowleft","arrowleft","arrowright","arrowleft","arrowleft"],"response_times":[372,449,352,344,278,438,276,448,201,525],"outcomes":[43,60,51,59,63,56,54,51,54,51],"screen_resolution":1,"trial_type":"horizons-trial","trial_index":99,"time_elapsed":812221,"internal_node_id":"0.0-95.0"},{"horizon":5,"rewards_L":[67,69,80,66,79],"rewards_R":[58,55,56,57,59],"key_presses":["arrowright","arrowleft","arrowright","arrowleft","arrowleft"],"response_times":[521,187,711,212,632],"outcomes":[58,69,56,66,79],"screen_resolution":1,"trial_type":"horizons-trial","trial_index":100,"time_elapsed":815160,"internal_node_id":"0.0-96.0"},{"horizon":5,"rewards_L":[60,58,82,73,67],"rewards_R":[26,42,39,32,24],"key_presses":["arrowleft","arrowright","arrowright","arrowright","arrowleft"],"response_times":[387,262,377,640,428],"outcomes":[60,42,39,32,67],"screen_resolution":1,"trial_type":"horizons-trial","trial_index":101,"time_elapsed":818017,"internal_node_id":"0.0-97.0"},{"horizon":10,"rewards_L":[34,22,35,41,31,28,24,39,31,44],"rewards_R":[37,72,68,55,59,65,68,62,69,56],"key_presses":["arrowright","arrowright","arrowright","arrowleft","arrowleft","arrowleft","arrowright","arrowleft","arrowright","arrowright"],"response_times":[448,353,299,488,396,270,464,320,294,440],"outcomes":[37,72,68,41,31,28,68,39,69,56],"screen_resolution":1,"trial_type":"horizons-trial","trial_index":102,"time_elapsed":822470,"internal_node_id":"0.0-98.0"},{"horizon":10,"rewards_L":[48,52,58,55,56,54,77,57,54,60],"rewards_R":[82,81,68,81,85,75,65,66,78,90],"key_presses":["arrowright","arrowleft","arrowleft","arrowright","arrowright","arrowleft","arrowleft","arrowright","arrowright","arrowright"],"response_times":[399,253,323,320,290,318,350,252,472,540],"outcomes":[82,52,58,81,85,54,77,66,78,90],"screen_resolution":1,"trial_type":"horizons-trial","trial_index":103,"time_elapsed":826500,"internal_node_id":"0.0-99.0"},{"horizon":5,"rewards_L":[64,52,64,69,58],"rewards_R":[42,42,24,55,44],"key_presses":["arrowright","arrowright","arrowleft","arrowleft","arrowleft"],"response_times":[383,424,378,262,839],"outcomes":[42,42,64,69,58],"screen_resolution":1,"trial_type":"horizons-trial","trial_index":104,"time_elapsed":829544,"internal_node_id":"0.0-100.0"},{"horizon":10,"rewards_L":[61,53,48,62,47,53,56,52,57,52],"rewards_R":[33,39,34,30,35,38,40,40,48,38],"key_presses":["arrowright","arrowleft","arrowright","arrowright","arrowleft","arrowleft","arrowright","arrowleft","arrowleft","arrowleft"],"response_times":[423,267,588,495,398,440,296,354,1084,468],"outcomes":[33,53,34,30,47,53,40,52,57,52],"screen_resolution":1,"trial_type":"horizons-trial","trial_index":105,"time_elapsed":835119,"internal_node_id":"0.0-101.0"},{"horizon":10,"rewards_L":[66,65,57,64,56,61,63,52,67,76],"rewards_R":[74,70,82,78,68,77,68,64,78,89],"key_presses":["arrowleft","arrowright","arrowright","arrowleft","arrowleft","arrowright","arrowleft","arrowright","arrowleft","arrowright"],"response_times":[388,270,275,289,432,227,382,322,208,1698],"outcomes":[66,70,82,64,56,77,63,64,67,89],"screen_resolution":1,"trial_type":"horizons-trial","trial_index":106,"time_elapsed":840449,"internal_node_id":"0.0-102.0"},{"horizon":10,"rewards_L":[58,59,57,50,54,54,61,62,46,74],"rewards_R":[66,80,86,97,84,70,80,71,79,89],"key_presses":["arrowleft","arrowright","arrowleft","arrowleft","arrowright","arrowleft","arrowright","arrowleft","arrowright","arrowright"],"response_times":[386,278,470,462,379,323,218,420,184,574],"outcomes":[58,80,57,50,84,54,80,62,79,89],"screen_resolution":1,"trial_type":"horizons-trial","trial_index":107,"time_elapsed":844905,"internal_node_id":"0.0-103.0"},{"horizon":5,"rewards_L":[100,81,79,84,91],"rewards_R":[64,53,72,52,51],"key_presses":["arrowleft","arrowright","arrowright","arrowleft","arrowleft"],"response_times":[397,215,354,321,508],"outcomes":[100,53,72,84,91],"screen_resolution":1,"trial_type":"horizons-trial","trial_index":108,"time_elapsed":847211,"internal_node_id":"0.0-104.0"},{"horizon":10,"rewards_L":[100,100,84,91,98,81,87,80,90,97],"rewards_R":[68,61,74,60,54,68,64,70,67,65],"key_presses":["arrowright","arrowleft","arrowright","arrowright","arrowleft","arrowleft","arrowright","arrowleft","arrowleft","arrowleft"],"response_times":[435,284,460,536,385,316,388,362,306,392],"outcomes":[68,100,74,60,98,81,64,80,90,97],"screen_resolution":1,"trial_type":"horizons-trial","trial_index":109,"time_elapsed":851729,"internal_node_id":"0.0-105.0"},{"horizon":10,"rewards_L":[39,46,41,35,45,35,33,42,47,42],"rewards_R":[29,27,18,30,34,34,26,22,40,18],"key_presses":["arrowright","arrowright","arrowleft","arrowleft","arrowright","arrowright","arrowleft","arrowleft","arrowright","arrowleft"],"response_times":[357,342,398,257,364,265,328,247,473,538],"outcomes":[29,27,41,35,34,34,33,42,40,42],"screen_resolution":1,"trial_type":"horizons-trial","trial_index":110,"time_elapsed":856239,"internal_node_id":"0.0-106.0"},{"horizon":5,"rewards_L":[31,50,32,40,40],"rewards_R":[68,64,55,70,63],"key_presses":["arrowright","arrowright","arrowleft","arrowright","arrowright"],"response_times":[419,523,373,522,740],"outcomes":[68,64,32,70,63],"screen_resolution":1,"trial_type":"horizons-trial","trial_index":111,"time_elapsed":859375,"internal_node_id":"0.0-107.0"},{"horizon":5,"rewards_L":[79,87,63,74,83],"rewards_R":[63,70,52,61,59],"key_presses":["arrowleft","arrowleft","arrowright","arrowleft","arrowleft"],"response_times":[403,300,341,633,700],"outcomes":[79,87,52,74,83],"screen_resolution":1,"trial_type":"horizons-trial","trial_index":112,"time_elapsed":862535,"internal_node_id":"0.0-108.0"},{"horizon":10,"rewards_L":[62,62,62,71,62,57,55,55,76,66],"rewards_R":[52,62,59,56,38,59,63,48,49,55],"key_presses":["arrowright","arrowleft","arrowright","arrowleft","arrowright","arrowleft","arrowright","arrowleft","arrowright","arrowleft"],"response_times":[403,282,722,279,414,188,682,148,1034,598],"outcomes":[52,62,59,71,38,57,63,55,49,66],"screen_resolution":1,"trial_type":"horizons-trial","trial_index":113,"time_elapsed":868013,"internal_node_id":"0.0-109.0"},{"horizon":5,"rewards_L":[21,33,44,28,39],"rewards_R":[46,35,36,34,50],"key_presses":["arrowleft","arrowright","arrowleft","arrowright","arrowright"],"response_times":[483,382,342,224,1694],"outcomes":[21,35,44,34,50],"screen_resolution":1,"trial_type":"horizons-trial","trial_index":114,"time_elapsed":871933,"internal_node_id":"0.0-110.0"},{"horizon":10,"rewards_L":[37,30,46,36,41,34,39,35,50,40],"rewards_R":[58,59,50,49,70,45,60,51,59,65],"key_presses":["arrowleft","arrowright","arrowleft","arrowleft","arrowright","arrowright","arrowleft","arrowright","arrowleft","arrowright"],"response_times":[438,291,258,520,266,217,340,212,304,884],"outcomes":[37,59,46,36,70,45,39,51,50,65],"screen_resolution":1,"trial_type":"horizons-trial","trial_index":115,"time_elapsed":876341,"internal_node_id":"0.0-111.0"},{"horizon":5,"rewards_L":[55,45,45,38,44],"rewards_R":[60,69,59,51,61],"key_presses":["arrowleft","arrowright","arrowright","arrowleft","arrowright"],"response_times":[409,240,546,324,1114],"outcomes":[55,69,59,38,61],"screen_resolution":1,"trial_type":"horizons-trial","trial_index":116,"time_elapsed":879573,"internal_node_id":"0.0-112.0"},{"horizon":5,"rewards_L":[47,46,53,55,37],"rewards_R":[54,50,50,55,56],"key_presses":["arrowright","arrowright","arrowright","arrowleft","arrowright"],"response_times":[421,326,286,351,843],"outcomes":[54,50,50,55,56],"screen_resolution":1,"trial_type":"horizons-trial","trial_index":117,"time_elapsed":882566,"internal_node_id":"0.0-113.0"},{"horizon":5,"rewards_L":[33,38,44,27,31],"rewards_R":[62,47,49,47,58],"key_presses":["arrowright","arrowleft","arrowleft","arrowleft","arrowright"],"response_times":[482,296,370,471,322],"outcomes":[62,38,44,27,58],"screen_resolution":1,"trial_type":"horizons-trial","trial_index":118,"time_elapsed":885018,"internal_node_id":"0.0-114.0"},{"horizon":10,"rewards_L":[51,52,52,60,59,58,59,69,49,64],"rewards_R":[43,41,47,36,52,44,36,45,43,40],"key_presses":["arrowright","arrowright","arrowleft","arrowleft","arrowright","arrowleft","arrowright","arrowleft","arrowright","arrowleft"],"response_times":[435,306,337,159,576,260,483,412,288,1467],"outcomes":[43,41,52,60,52,58,36,69,43,64],"screen_resolution":1,"trial_type":"horizons-trial","trial_index":119,"time_elapsed":890425,"internal_node_id":"0.0-115.0"},{"horizon":5,"rewards_L":[52,53,56,52,58],"rewards_R":[77,75,75,66,75],"key_presses":["arrowleft","arrowright","arrowleft","arrowleft","arrowleft"],"response_times":[406,266,262,410,748],"outcomes":[52,75,56,52,58],"screen_resolution":1,"trial_type":"horizons-trial","trial_index":120,"time_elapsed":893304,"internal_node_id":"0.0-116.0"},{"horizon":10,"rewards_L":[80,78,87,66,88,86,82,82,83,86],"rewards_R":[56,55,55,54,53,65,64,62,63,53],"key_presses":["arrowleft","arrowleft","arrowright","arrowleft","arrowright","arrowleft","arrowright","arrowleft","arrowleft","arrowleft"],"response_times":[357,387,352,324,519,200,445,121,586,384],"outcomes":[80,78,55,66,53,86,64,82,83,86],"screen_resolution":1,"trial_type":"horizons-trial","trial_index":121,"time_elapsed":897659,"internal_node_id":"0.0-117.0"},{"horizon":10,"rewards_L":[28,46,27,51,43,45,33,44,41,47],"rewards_R":[32,20,20,38,24,29,30,27,18,25],"key_presses":["arrowleft","arrowright","arrowleft","arrowright","arrowleft","arrowright","arrowleft","arrowright","arrowleft","arrowleft"],"response_times":[371,322,286,200,336,142,472,142,416,1492],"outcomes":[28,20,27,38,43,29,33,27,41,47],"screen_resolution":1,"trial_type":"horizons-trial","trial_index":122,"time_elapsed":902567,"internal_node_id":"0.0-118.0"},{"horizon":10,"rewards_L":[70,44,57,48,41,57,65,71,55,43],"rewards_R":[54,56,66,61,53,54,65,56,58,61],"key_presses":["arrowleft","arrowleft","arrowright","arrowright","arrowleft","arrowright","arrowright","arrowleft","arrowleft","arrowleft"],"response_times":[366,374,374,300,1124,238,1890,2228,692,554],"outcomes":[70,44,66,61,41,54,65,71,55,43],"screen_resolution":1,"trial_type":"horizons-trial","trial_index":123,"time_elapsed":911511,"internal_node_id":"0.0-119.0"},{"horizon":10,"rewards_L":[61,57,64,67,45,62,55,61,59,61],"rewards_R":[35,34,33,34,29,36,22,24,25,20],"key_presses":["arrowright","arrowleft","arrowleft","arrowright","arrowright","arrowright","arrowleft","arrowleft","arrowleft","arrowleft"],"response_times":[517,256,316,509,994,317,566,226,734,486],"outcomes":[35,57,64,34,29,36,55,61,59,61],"screen_resolution":1,"trial_type":"horizons-trial","trial_index":124,"time_elapsed":917257,"internal_node_id":"0.0-120.0"},{"horizon":10,"rewards_L":[32,37,24,40,50,41,35,39,49,33],"rewards_R":[65,64,44,68,70,58,62,63,69,49],"key_presses":["arrowleft","arrowright","arrowleft","arrowright","arrowleft","arrowright","arrowleft","arrowleft","arrowright","arrowright"],"response_times":[470,374,592,153,341,96,420,186,468,442],"outcomes":[32,64,24,68,50,58,35,39,69,49],"screen_resolution":1,"trial_type":"horizons-trial","trial_index":125,"time_elapsed":921559,"internal_node_id":"0.0-121.0"},{"horizon":10,"rewards_L":[50,40,43,31,39,58,33,42,36,39],"rewards_R":[41,58,37,49,39,30,36,40,38,40],"key_presses":["arrowleft","arrowright","arrowleft","arrowleft","arrowright","arrowleft","arrowright","arrowleft","arrowleft","arrowleft"],"response_times":[420,249,702,1226,1628,706,932,186,563,399],"outcomes":[50,58,43,31,39,58,36,42,36,39],"screen_resolution":1,"trial_type":"horizons-trial","trial_index":126,"time_elapsed":929331,"internal_node_id":"0.0-122.0"},{"horizon":5,"rewards_L":[34,52,42,47,41],"rewards_R":[49,58,41,39,53],"key_presses":["arrowleft","arrowleft","arrowright","arrowright","arrowleft"],"response_times":[373,318,328,266,1568],"outcomes":[34,52,41,39,41],"screen_resolution":1,"trial_type":"horizons-trial","trial_index":127,"time_elapsed":932962,"internal_node_id":"0.0-123.0"},{"horizon":5,"rewards_L":[71,82,78,71,50],"rewards_R":[37,50,42,47,33],"key_presses":["arrowright","arrowright","arrowleft","arrowleft","arrowleft"],"response_times":[518,346,342,362,398],"outcomes":[37,50,78,71,50],"screen_resolution":1,"trial_type":"horizons-trial","trial_index":128,"time_elapsed":935667,"internal_node_id":"0.0-124.0"},{"horizon":5,"rewards_L":[24,17,44,39,36],"rewards_R":[16,3,5,24,7],"key_presses":["arrowleft","arrowleft","arrowleft","arrowright","arrowleft"],"response_times":[375,288,359,312,1053],"outcomes":[24,17,44,24,36],"screen_resolution":1,"trial_type":"horizons-trial","trial_index":129,"time_elapsed":938834,"internal_node_id":"0.0-125.0"},{"horizon":5,"rewards_L":[38,31,39,36,51],"rewards_R":[0,5,19,1,0],"key_presses":["arrowleft","arrowright","arrowright","arrowright","arrowleft"],"response_times":[318,305,405,444,630],"outcomes":[38,5,19,1,51],"screen_resolution":1,"trial_type":"horizons-trial","trial_index":130,"time_elapsed":941770,"internal_node_id":"0.0-126.0"},{"horizon":10,"rewards_L":[33,35,37,24,64,42,43,36,39,37],"rewards_R":[31,28,39,33,50,25,36,30,43,35],"key_presses":["arrowright","arrowright","arrowright","arrowleft","arrowleft","arrowleft","arrowright","arrowleft","arrowleft","arrowleft"],"response_times":[435,330,284,417,290,320,434,170,494,466],"outcomes":[31,28,39,24,64,42,36,36,39,37],"screen_resolution":1,"trial_type":"horizons-trial","trial_index":131,"time_elapsed":946120,"internal_node_id":"0.0-127.0"},{"horizon":10,"rewards_L":[40,40,46,47,42,31,27,50,35,38],"rewards_R":[56,57,58,55,71,55,51,49,66,67],"key_presses":["arrowleft","arrowleft","arrowright","arrowright","arrowleft","arrowright","arrowleft","arrowright","arrowright","arrowright"],"response_times":[341,220,332,318,474,281,631,190,510,446],"outcomes":[40,40,58,55,42,55,27,49,66,67],"screen_resolution":1,"trial_type":"horizons-trial","trial_index":132,"time_elapsed":950622,"internal_node_id":"0.0-128.0"},{"horizon":10,"rewards_L":[10,12,12,7,3,17,8,12,12,14],"rewards_R":[31,45,32,32,41,36,33,32,41,38],"key_presses":["arrowright","arrowright","arrowright","arrowleft","arrowleft","arrowleft","arrowright","arrowleft","arrowright","arrowright"],"response_times":[471,336,274,322,275,272,309,360,334,400],"outcomes":[31,45,32,7,3,17,33,12,41,38],"screen_resolution":1,"trial_type":"horizons-trial","trial_index":133,"time_elapsed":954642,"internal_node_id":"0.0-129.0"},{"horizon":5,"rewards_L":[23,29,30,27,41],"rewards_R":[40,44,55,39,41],"key_presses":["arrowright","arrowright","arrowright","arrowleft","arrowright"],"response_times":[405,436,384,360,400],"outcomes":[40,44,55,27,41],"screen_resolution":1,"trial_type":"horizons-trial","trial_index":134,"time_elapsed":957194,"internal_node_id":"0.0-130.0"},{"horizon":10,"rewards_L":[68,56,65,54,52,62,66,54,59,53],"rewards_R":[35,36,39,64,55,45,28,43,47,34],"key_presses":["arrowleft","arrowleft","arrowright","arrowleft","arrowright","arrowleft","arrowright","arrowleft","arrowright","arrowleft"],"response_times":[391,251,371,388,1057,196,804,160,500,612],"outcomes":[68,56,39,54,55,62,28,54,47,53],"screen_resolution":1,"trial_type":"horizons-trial","trial_index":135,"time_elapsed":962497,"internal_node_id":"0.0-131.0"},{"horizon":10,"rewards_L":[54,72,61,38,61,52,55,65,71,55],"rewards_R":[82,86,83,88,81,94,83,84,96,95],"key_presses":["arrowleft","arrowright","arrowleft","arrowleft","arrowright","arrowleft","arrowright","arrowright","arrowleft","arrowright"],"response_times":[471,470,426,358,370,412,200,456,231,507],"outcomes":[54,86,61,38,81,52,83,84,71,95],"screen_resolution":1,"trial_type":"horizons-trial","trial_index":136,"time_elapsed":967150,"internal_node_id":"0.0-132.0"},{"horizon":10,"rewards_L":[61,49,34,31,39,31,34,39,44,39],"rewards_R":[18,21,28,20,14,23,23,20,17,14],"key_presses":["arrowleft","arrowright","arrowright","arrowleft","arrowleft","arrowright","arrowleft","arrowright","arrowright","arrowright"],"response_times":[383,282,516,324,279,285,372,305,539,832],"outcomes":[61,21,28,31,39,23,34,20,17,14],"screen_resolution":1,"trial_type":"horizons-trial","trial_index":137,"time_elapsed":972265,"internal_node_id":"0.0-133.0"},{"horizon":10,"rewards_L":[53,59,47,61,67,60,53,64,60,66],"rewards_R":[46,32,39,40,27,22,23,39,40,42],"key_presses":["arrowleft","arrowright","arrowright","arrowright","arrowleft","arrowleft","arrowright","arrowleft","arrowright","arrowleft"],"response_times":[393,270,336,315,335,459,300,372,409,464],"outcomes":[53,32,39,40,67,60,23,64,40,66],"screen_resolution":1,"trial_type":"horizons-trial","trial_index":138,"time_elapsed":976589,"internal_node_id":"0.0-134.0"},{"horizon":10,"rewards_L":[44,61,47,62,54,56,53,55,36,51],"rewards_R":[53,54,57,53,67,62,60,59,69,63],"key_presses":["arrowright","arrowleft","arrowleft","arrowleft","arrowright","arrowleft","arrowright","arrowleft","arrowright","arrowright"],"response_times":[355,294,316,330,400,458,204,416,182,714],"outcomes":[53,61,47,62,67,56,60,55,69,63],"screen_resolution":1,"trial_type":"horizons-trial","trial_index":139,"time_elapsed":980845,"internal_node_id":"0.0-135.0"},{"horizon":10,"rewards_L":[28,33,36,36,27,51,37,33,22,43],"rewards_R":[34,29,30,27,35,33,41,23,30,44],"key_presses":["arrowleft","arrowright","arrowright","arrowright","arrowleft","arrowleft","arrowleft","arrowright","arrowleft","arrowleft"],"response_times":[340,265,419,281,285,342,313,257,471,1556],"outcomes":[28,29,30,27,27,51,37,23,22,43],"screen_resolution":1,"trial_type":"horizons-trial","trial_index":140,"time_elapsed":986041,"internal_node_id":"0.0-136.0"},{"horizon":10,"rewards_L":[0,9,0,3,6,22,13,11,4,18],"rewards_R":[41,41,44,40,44,51,38,25,30,43],"key_presses":["arrowright","arrowright","arrowleft","arrowleft","arrowleft","arrowright","arrowright","arrowleft","arrowright","arrowright"],"response_times":[544,289,16374,252,288,268,192,265,244,376],"outcomes":[41,41,0,3,6,51,38,11,30,43],"screen_resolution":1,"trial_type":"horizons-trial","trial_index":141,"time_elapsed":1005762,"internal_node_id":"0.0-137.0"},{"horizon":5,"rewards_L":[89,77,82,70,83],"rewards_R":[61,53,56,66,69],"key_presses":["arrowleft","arrowleft","arrowright","arrowleft","arrowleft"],"response_times":[393,308,352,350,509],"outcomes":[89,77,56,70,83],"screen_resolution":1,"trial_type":"horizons-trial","trial_index":142,"time_elapsed":1008442,"internal_node_id":"0.0-138.0"},{"horizon":5,"rewards_L":[61,47,63,68,63],"rewards_R":[64,75,66,67,62],"key_presses":["arrowright","arrowright","arrowleft","arrowright","arrowright"],"response_times":[485,334,302,524,1068],"outcomes":[64,75,63,67,62],"screen_resolution":1,"trial_type":"horizons-trial","trial_index":143,"time_elapsed":1011702,"internal_node_id":"0.0-139.0"},{"horizon":5,"rewards_L":[43,32,44,25,26],"rewards_R":[35,53,38,55,35],"key_presses":["arrowright","arrowleft","arrowleft","arrowleft","arrowleft"],"response_times":[433,290,351,411,1187],"outcomes":[35,32,44,25,26],"screen_resolution":1,"trial_type":"horizons-trial","trial_index":144,"time_elapsed":1015192,"internal_node_id":"0.0-140.0"},{"horizon":5,"rewards_L":[81,58,74,58,71],"rewards_R":[63,71,65,68,52],"key_presses":["arrowright","arrowleft","arrowright","arrowright","arrowright"],"response_times":[372,290,402,564,674],"outcomes":[63,58,65,68,52],"screen_resolution":1,"trial_type":"horizons-trial","trial_index":145,"time_elapsed":1022111,"internal_node_id":"0.0-141.0"},{"horizon":10,"rewards_L":[63,46,70,65,61,61,56,67,52,54],"rewards_R":[68,80,75,81,72,65,57,57,53,70],"key_presses":["arrowleft","arrowright","arrowleft","arrowright","arrowleft","arrowright","arrowleft","arrowright","arrowright","arrowright"],"response_times":[10535,253,258,165,319,96,444,129,456,382],"outcomes":[63,80,70,81,61,65,56,57,53,70],"screen_resolution":1,"trial_type":"horizons-trial","trial_index":146,"time_elapsed":1035821,"internal_node_id":"0.0-142.0"},{"horizon":5,"rewards_L":[48,37,58,51,44],"rewards_R":[55,50,59,65,49],"key_presses":["arrowright","arrowright","arrowleft","arrowright","arrowright"],"response_times":[468,279,358,464,568],"outcomes":[55,50,58,65,49],"screen_resolution":1,"trial_type":"horizons-trial","trial_index":147,"time_elapsed":1038711,"internal_node_id":"0.0-143.0"},{"horizon":5,"rewards_L":[60,59,59,58,51],"rewards_R":[39,34,52,38,28],"key_presses":["arrowright","arrowleft","arrowright","arrowright","arrowleft"],"response_times":[472,291,284,488,714],"outcomes":[39,59,52,38,51],"screen_resolution":1,"trial_type":"horizons-trial","trial_index":148,"time_elapsed":1041553,"internal_node_id":"0.0-144.0"},{"horizon":5,"rewards_L":[27,35,38,47,41],"rewards_R":[35,34,47,26,42],"key_presses":["arrowright","arrowleft","arrowleft","arrowleft","arrowleft"],"response_times":[1363,254,334,398,1158],"outcomes":[35,35,38,47,41],"screen_resolution":1,"trial_type":"horizons-trial","trial_index":149,"time_elapsed":1045715,"internal_node_id":"0.0-145.0"},{"horizon":10,"rewards_L":[42,54,57,43,50,50,57,42,44,42],"rewards_R":[48,48,39,46,29,56,52,33,40,37],"key_presses":["arrowright","arrowleft","arrowleft","arrowright","arrowright","arrowleft","arrowright","arrowleft","arrowright","arrowright"],"response_times":[387,284,306,316,224,341,261,334,169,1733],"outcomes":[48,54,57,46,29,50,52,42,40,37],"screen_resolution":1,"trial_type":"horizons-trial","trial_index":150,"time_elapsed":1050805,"internal_node_id":"0.0-146.0"},{"horizon":10,"rewards_L":[57,53,51,62,62,51,60,66,53,64],"rewards_R":[74,72,81,61,77,63,83,63,83,87],"key_presses":["arrowleft","arrowright","arrowleft","arrowleft","arrowright","arrowleft","arrowright","arrowright","arrowleft","arrowright"],"response_times":[427,324,274,537,342,422,178,318,344,456],"outcomes":[57,72,51,62,77,51,83,63,53,87],"screen_resolution":1,"trial_type":"horizons-trial","trial_index":151,"time_elapsed":1081222,"internal_node_id":"0.0-147.0"},{"horizon":10,"rewards_L":[69,62,49,58,53,66,46,55,58,56],"rewards_R":[65,53,51,61,57,56,66,43,64,64],"key_presses":["arrowright","arrowleft","arrowleft","arrowleft","arrowright","arrowright","arrowleft","arrowright","arrowleft","arrowleft"],"response_times":[534,274,292,294,245,303,215,249,269,1088],"outcomes":[65,62,49,58,57,56,46,43,58,56],"screen_resolution":1,"trial_type":"horizons-trial","trial_index":152,"time_elapsed":1085627,"internal_node_id":"0.0-148.0"},{"horizon":5,"rewards_L":[16,38,19,29,39],"rewards_R":[51,33,49,40,34],"key_presses":["arrowright","arrowleft","arrowleft","arrowleft","arrowright"],"response_times":[394,244,364,458,366],"outcomes":[51,38,19,29,34],"screen_resolution":1,"trial_type":"horizons-trial","trial_index":153,"time_elapsed":1088257,"internal_node_id":"0.0-149.0"},{"horizon":5,"rewards_L":[46,43,49,48,41],"rewards_R":[50,44,51,53,67],"key_presses":["arrowleft","arrowright","arrowleft","arrowleft","arrowleft"],"response_times":[363,310,301,480,750],"outcomes":[46,44,49,48,41],"screen_resolution":1,"trial_type":"horizons-trial","trial_index":154,"time_elapsed":1090992,"internal_node_id":"0.0-150.0"},{"horizon":5,"rewards_L":[76,59,68,70,71],"rewards_R":[62,80,72,55,78],"key_presses":["arrowleft","arrowright","arrowleft","arrowleft","arrowleft"],"response_times":[413,216,309,471,1416],"outcomes":[76,80,68,70,71],"screen_resolution":1,"trial_type":"horizons-trial","trial_index":155,"time_elapsed":1094611,"internal_node_id":"0.0-151.0"},{"horizon":10,"rewards_L":[78,57,47,53,79,51,64,50,49,59],"rewards_R":[66,59,48,58,67,54,66,72,71,67],"key_presses":["arrowleft","arrowleft","arrowright","arrowright","arrowleft","arrowright","arrowleft","arrowright","arrowleft","arrowright"],"response_times":[431,252,340,141,355,128,488,78,2029,930],"outcomes":[78,57,48,58,79,54,64,72,49,67],"screen_resolution":1,"trial_type":"horizons-trial","trial_index":156,"time_elapsed":1100559,"internal_node_id":"0.0-152.0"},{"horizon":10,"rewards_L":[50,52,46,48,57,46,53,40,38,53],"rewards_R":[32,42,39,35,38,42,49,39,35,42],"key_presses":["arrowleft","arrowright","arrowright","arrowleft","arrowleft","arrowleft","arrowright","arrowright","arrowleft","arrowleft"],"response_times":[382,281,395,340,712,158,524,483,1905,2746],"outcomes":[50,42,39,48,57,46,49,39,38,53],"screen_resolution":1,"trial_type":"horizons-trial","trial_index":157,"time_elapsed":1109255,"internal_node_id":"0.0-153.0"},{"horizon":10,"rewards_L":[44,46,38,40,56,37,41,47,44,40],"rewards_R":[41,35,42,60,35,33,35,44,27,39],"key_presses":["arrowleft","arrowleft","arrowright","arrowleft","arrowright","arrowleft","arrowleft","arrowright","arrowleft","arrowleft"],"response_times":[557,242,340,474,366,334,445,305,331,689],"outcomes":[44,46,42,40,35,37,41,44,44,40],"screen_resolution":1,"trial_type":"horizons-trial","trial_index":158,"time_elapsed":1114151,"internal_node_id":"0.0-154.0"},{"horizon":10,"rewards_L":[69,58,49,64,52,59,56,52,63,58],"rewards_R":[42,54,46,45,55,39,58,49,39,56],"key_presses":["arrowleft","arrowright","arrowright","arrowright","arrowleft","arrowleft","arrowleft","arrowright","arrowleft","arrowleft"],"response_times":[701,360,524,582,354,305,429,389,438,628],"outcomes":[69,54,46,45,52,59,56,49,63,58],"screen_resolution":1,"trial_type":"horizons-trial","trial_index":159,"time_elapsed":1119463,"internal_node_id":"0.0-155.0"},{"horizon":10,"rewards_L":[37,31,44,37,48,40,38,35,48,45],"rewards_R":[49,33,32,39,65,32,53,32,43,41],"key_presses":["arrowleft","arrowleft","arrowright","arrowright","arrowleft","arrowright","arrowleft","arrowright","arrowleft","arrowleft"],"response_times":[435,266,311,196,350,332,305,230,388,592],"outcomes":[37,31,32,39,48,32,38,32,48,45],"screen_resolution":1,"trial_type":"horizons-trial","trial_index":160,"time_elapsed":1123715,"internal_node_id":"0.0-156.0"},{"horizon":10,"rewards_L":[83,100,84,86,84,86,91,100,98,81],"rewards_R":[62,58,64,66,62,60,61,54,59,50],"key_presses":["arrowright","arrowright","arrowleft","arrowleft","arrowright","arrowleft","arrowleft","arrowright","arrowleft","arrowleft"],"response_times":[465,271,338,140,481,197,391,207,368,446],"outcomes":[62,58,84,86,62,86,91,54,98,81],"screen_resolution":1,"trial_type":"horizons-trial","trial_index":161,"time_elapsed":1127629,"internal_node_id":"0.0-157.0"},{"horizon":10,"rewards_L":[38,26,26,48,34,41,32,23,38,46],"rewards_R":[32,46,51,50,38,42,68,63,50,51],"key_presses":["arrowleft","arrowright","arrowleft","arrowleft","arrowleft","arrowright","arrowright","arrowleft","arrowright","arrowright"],"response_times":[9996,284,282,362,202,268,151,327,189,431],"outcomes":[38,46,26,48,34,42,68,23,50,51],"screen_resolution":1,"trial_type":"horizons-trial","trial_index":162,"time_elapsed":1140793,"internal_node_id":"0.0-158.0"},{"horizon":5,"rewards_L":[99,97,70,99,84],"rewards_R":[63,68,70,60,58],"key_presses":["arrowleft","arrowleft","arrowright","arrowleft","arrowleft"],"response_times":[338,277,316,326,422],"outcomes":[99,97,70,99,84],"screen_resolution":1,"trial_type":"horizons-trial","trial_index":163,"time_elapsed":1143242,"internal_node_id":"0.0-159.0"},{"horizon":10,"rewards_L":[56,69,79,60,64,63,67,70,66,52],"rewards_R":[42,52,40,46,50,51,46,58,46,50],"key_presses":["arrowleft","arrowright","arrowright","arrowright","arrowleft","arrowleft","arrowleft","arrowright","arrowleft","arrowleft"],"response_times":[328,324,640,845,235,218,371,253,350,474],"outcomes":[56,52,40,46,64,63,67,58,66,52],"screen_resolution":1,"trial_type":"horizons-trial","trial_index":164,"time_elapsed":1148215,"internal_node_id":"0.0-160.0"},{"horizon":10,"rewards_L":[47,25,42,45,41,45,50,36,45,39],"rewards_R":[27,11,11,14,31,28,23,24,17,30],"key_presses":["arrowleft","arrowright","arrowright","arrowright","arrowright","arrowright","arrowright","arrowleft","arrowleft","arrowleft"],"response_times":[351,405,296,290,248,322,260,254,318,439],"outcomes":[47,11,11,14,31,28,23,36,45,39],"screen_resolution":1,"trial_type":"horizons-trial","trial_index":165,"time_elapsed":1151909,"internal_node_id":"0.0-161.0"},{"horizon":10,"rewards_L":[40,46,22,45,33,27,39,48,34,39],"rewards_R":[66,64,57,49,61,61,74,56,64,66],"key_presses":["arrowleft","arrowright","arrowleft","arrowright","arrowright","arrowleft","arrowleft","arrowleft","arrowright","arrowright"],"response_times":[418,224,280,314,334,274,264,316,279,1763],"outcomes":[40,64,22,49,61,27,39,48,64,66],"screen_resolution":1,"trial_type":"horizons-trial","trial_index":166,"time_elapsed":1156919,"internal_node_id":"0.0-162.0"},{"horizon":5,"rewards_L":[66,57,51,65,64],"rewards_R":[53,37,36,40,45],"key_presses":["arrowleft","arrowright","arrowright","arrowleft","arrowleft"],"response_times":[363,250,444,362,478],"outcomes":[66,37,36,65,64],"screen_resolution":1,"trial_type":"horizons-trial","trial_index":167,"time_elapsed":1159587,"internal_node_id":"0.0-163.0"},{"horizon":10,"rewards_L":[13,32,33,21,28,27,39,22,35,31],"rewards_R":[21,33,33,34,32,29,39,38,36,58],"key_presses":["arrowright","arrowleft","arrowleft","arrowleft","arrowleft","arrowright","arrowright","arrowright","arrowleft","arrowleft"],"response_times":[450,254,392,172,720,334,216,416,442,1188],"outcomes":[21,32,33,21,28,29,39,38,35,31],"screen_resolution":1,"trial_type":"horizons-trial","trial_index":168,"time_elapsed":1164807,"internal_node_id":"0.0-164.0"},{"horizon":10,"rewards_L":[33,40,42,28,23,34,56,33,32,34],"rewards_R":[46,55,50,55,52,48,45,57,60,65],"key_presses":["arrowright","arrowright","arrowleft","arrowright","arrowleft","arrowleft","arrowright","arrowleft","arrowleft","arrowright"],"response_times":[847,298,351,474,370,290,380,270,375,1073],"outcomes":[46,55,42,55,23,34,45,33,32,65],"screen_resolution":1,"trial_type":"horizons-trial","trial_index":169,"time_elapsed":1170291,"internal_node_id":"0.0-165.0"},{"horizon":5,"rewards_L":[51,54,45,35,48],"rewards_R":[48,43,35,50,40],"key_presses":["arrowleft","arrowright","arrowright","arrowleft","arrowright"],"response_times":[458,515,756,438,1360],"outcomes":[51,43,35,35,40],"screen_resolution":1,"trial_type":"horizons-trial","trial_index":170,"time_elapsed":1174581,"internal_node_id":"0.0-166.0"},{"horizon":5,"rewards_L":[63,48,67,65,54],"rewards_R":[89,86,92,86,87],"key_presses":["arrowleft","arrowright","arrowleft","arrowleft","arrowright"],"response_times":[365,282,278,362,282],"outcomes":[63,86,67,65,87],"screen_resolution":1,"trial_type":"horizons-trial","trial_index":171,"time_elapsed":1177431,"internal_node_id":"0.0-167.0"},{"horizon":5,"rewards_L":[16,15,23,32,20],"rewards_R":[27,30,59,28,32],"key_presses":["arrowleft","arrowright","arrowleft","arrowright","arrowright"],"response_times":[419,302,540,744,536],"outcomes":[16,30,23,28,32],"screen_resolution":1,"trial_type":"horizons-trial","trial_index":172,"time_elapsed":1180600,"internal_node_id":"0.0-168.0"},{"horizon":10,"rewards_L":[38,38,34,39,26,58,30,53,46,31],"rewards_R":[69,42,67,61,52,59,64,62,53,55],"key_presses":["arrowright","arrowright","arrowleft","arrowright","arrowleft","arrowleft","arrowright","arrowleft","arrowright","arrowright"],"response_times":[632,408,336,509,342,582,414,423,296,775],"outcomes":[69,42,34,61,26,58,64,53,53,55],"screen_resolution":1,"trial_type":"horizons-trial","trial_index":173,"time_elapsed":1186194,"internal_node_id":"0.0-169.0"},{"horizon":5,"rewards_L":[88,79,66,95,82],"rewards_R":[63,57,59,61,63],"key_presses":["arrowleft","arrowleft","arrowright","arrowright","arrowleft"],"response_times":[412,368,363,406,853],"outcomes":[88,79,59,61,82],"screen_resolution":1,"trial_type":"horizons-trial","trial_index":174,"time_elapsed":1189130,"internal_node_id":"0.0-170.0"},{"horizon":5,"rewards_L":[50,50,71,63,55],"rewards_R":[58,58,56,57,53],"key_presses":["arrowleft","arrowright","arrowright","arrowright","arrowright"],"response_times":[382,294,432,548,1378],"outcomes":[50,58,56,57,53],"screen_resolution":1,"trial_type":"horizons-trial","trial_index":175,"time_elapsed":1192854,"internal_node_id":"0.0-171.0"},{"horizon":5,"rewards_L":[55,58,64,65,68],"rewards_R":[71,57,77,63,68],"key_presses":["arrowright","arrowright","arrowleft","arrowright","arrowright"],"response_times":[407,358,360,486,1202],"outcomes":[71,57,64,63,68],"screen_resolution":1,"trial_type":"horizons-trial","trial_index":176,"time_elapsed":1196174,"internal_node_id":"0.0-172.0"},{"horizon":10,"rewards_L":[37,32,24,28,36,37,42,25,20,23],"rewards_R":[64,54,68,59,55,46,72,58,51,53],"key_presses":["arrowleft","arrowright","arrowright","arrowleft","arrowleft","arrowright","arrowleft","arrowright","arrowleft","arrowright"],"response_times":[442,224,382,386,1403,1534,295,595,402,488],"outcomes":[37,54,68,28,36,46,42,58,20,53],"screen_resolution":1,"trial_type":"horizons-trial","trial_index":177,"time_elapsed":1203004,"internal_node_id":"0.0-173.0"},{"horizon":10,"rewards_L":[54,44,35,31,46,46,47,44,41,54],"rewards_R":[56,69,75,69,62,71,62,53,49,56],"key_presses":["arrowright","arrowright","arrowleft","arrowleft","arrowright","arrowleft","arrowright","arrowleft","arrowright","arrowright"],"response_times":[387,268,376,174,662,134,476,179,512,354],"outcomes":[56,69,35,31,62,46,62,44,49,56],"screen_resolution":1,"trial_type":"horizons-trial","trial_index":178,"time_elapsed":1207237,"internal_node_id":"0.0-174.0"},{"horizon":5,"rewards_L":[41,39,38,47,36],"rewards_R":[54,69,50,48,56],"key_presses":["arrowright","arrowleft","arrowleft","arrowleft","arrowright"],"response_times":[386,292,371,575,330],"outcomes":[54,39,38,47,56],"screen_resolution":1,"trial_type":"horizons-trial","trial_index":179,"time_elapsed":1209890,"internal_node_id":"0.0-175.0"},{"horizon":5,"rewards_L":[36,30,34,43,30],"rewards_R":[31,42,41,35,28],"key_presses":["arrowleft","arrowright","arrowleft","arrowright","arrowright"],"response_times":[352,280,296,210,410],"outcomes":[36,42,34,35,28],"screen_resolution":1,"trial_type":"horizons-trial","trial_index":180,"time_elapsed":1212237,"internal_node_id":"0.0-176.0"},{"horizon":5,"rewards_L":[39,46,45,41,42],"rewards_R":[51,49,57,51,52],"key_presses":["arrowleft","arrowright","arrowright","arrowleft","arrowright"],"response_times":[367,196,470,286,254],"outcomes":[39,49,57,41,52],"screen_resolution":1,"trial_type":"horizons-trial","trial_index":181,"time_elapsed":1214355,"internal_node_id":"0.0-177.0"},{"horizon":5,"rewards_L":[47,60,55,62,64],"rewards_R":[35,52,47,70,49],"key_presses":["arrowleft","arrowright","arrowright","arrowright","arrowright"],"response_times":[411,258,359,280,618],"outcomes":[47,52,47,70,49],"screen_resolution":1,"trial_type":"horizons-trial","trial_index":182,"time_elapsed":1216972,"internal_node_id":"0.0-178.0"},{"horizon":5,"rewards_L":[62,81,60,62,60],"rewards_R":[75,64,55,70,52],"key_presses":["arrowright","arrowleft","arrowleft","arrowright","arrowleft"],"response_times":[383,271,383,356,1078],"outcomes":[75,81,60,70,60],"screen_resolution":1,"trial_type":"horizons-trial","trial_index":183,"time_elapsed":1219953,"internal_node_id":"0.0-179.0"},{"horizon":5,"rewards_L":[65,60,75,45,58],"rewards_R":[83,82,92,71,64],"key_presses":["arrowright","arrowright","arrowleft","arrowright","arrowright"],"response_times":[398,406,288,457,875],"outcomes":[83,82,75,71,64],"screen_resolution":1,"trial_type":"horizons-trial","trial_index":184,"time_elapsed":1222914,"internal_node_id":"0.0-180.0"},{"horizon":5,"rewards_L":[0,10,0,6,17],"rewards_R":[42,48,49,63,33],"key_presses":["arrowright","arrowleft","arrowleft","arrowleft","arrowright"],"response_times":[398,277,343,380,366],"outcomes":[42,10,0,6,33],"screen_resolution":1,"trial_type":"horizons-trial","trial_index":185,"time_elapsed":1225331,"internal_node_id":"0.0-181.0"},{"horizon":10,"rewards_L":[82,76,79,78,93,71,72,83,77,84],"rewards_R":[65,67,52,52,61,47,71,66,62,52],"key_presses":["arrowleft","arrowleft","arrowright","arrowright","arrowleft","arrowright","arrowleft","arrowleft","arrowright","arrowleft"],"response_times":[423,346,348,366,472,989,374,368,422,673],"outcomes":[82,76,52,52,93,47,72,83,62,84],"screen_resolution":1,"trial_type":"horizons-trial","trial_index":186,"time_elapsed":1230714,"internal_node_id":"0.0-182.0"},{"horizon":5,"rewards_L":[44,48,37,41,44],"rewards_R":[33,27,27,16,15],"key_presses":["arrowleft","arrowleft","arrowleft","arrowright","arrowleft"],"response_times":[346,272,372,377,633],"outcomes":[44,48,37,16,44],"screen_resolution":1,"trial_type":"horizons-trial","trial_index":187,"time_elapsed":1233324,"internal_node_id":"0.0-183.0"},{"horizon":10,"rewards_L":[59,57,47,62,60,59,50,72,59,56],"rewards_R":[42,44,45,47,30,51,50,32,53,37],"key_presses":["arrowright","arrowleft","arrowright","arrowright","arrowleft","arrowleft","arrowright","arrowleft","arrowleft","arrowright"],"response_times":[416,417,349,348,528,449,285,299,488,1354],"outcomes":[42,57,45,47,60,59,50,72,59,37],"screen_resolution":1,"trial_type":"horizons-trial","trial_index":188,"time_elapsed":1238845,"internal_node_id":"0.0-184.0"},{"horizon":10,"rewards_L":[57,50,77,69,52,47,68,54,66,68],"rewards_R":[16,22,27,34,20,14,23,34,34,29],"key_presses":["arrowleft","arrowright","arrowright","arrowleft","arrowleft","arrowright","arrowleft","arrowleft","arrowright","arrowleft"],"response_times":[388,319,416,307,547,307,219,362,269,546],"outcomes":[57,22,27,69,52,14,68,54,34,68],"screen_resolution":1,"trial_type":"horizons-trial","trial_index":189,"time_elapsed":1243242,"internal_node_id":"0.0-185.0"},{"horizon":10,"rewards_L":[40,49,58,49,68,48,46,55,35,54],"rewards_R":[59,58,45,68,63,57,49,62,49,75],"key_presses":["arrowright","arrowleft","arrowleft","arrowright","arrowleft","arrowleft","arrowright","arrowleft","arrowright","arrowleft"],"response_times":[435,262,331,316,300,664,141,743,347,718],"outcomes":[59,49,58,68,68,48,49,55,49,54],"screen_resolution":1,"trial_type":"horizons-trial","trial_index":190,"time_elapsed":1248358,"internal_node_id":"0.0-186.0"},{"horizon":5,"rewards_L":[81,80,74,72,76],"rewards_R":[32,36,38,36,32],"key_presses":["arrowright","arrowleft","arrowright","arrowleft","arrowleft"],"response_times":[647,266,428,322,367],"outcomes":[32,80,38,72,76],"screen_resolution":1,"trial_type":"horizons-trial","trial_index":191,"time_elapsed":1251050,"internal_node_id":"0.0-187.0"},{"horizon":5,"rewards_L":[29,37,21,23,31],"rewards_R":[27,39,44,48,33],"key_presses":["arrowright","arrowright","arrowright","arrowleft","arrowright"],"response_times":[407,336,312,314,1472],"outcomes":[27,39,44,23,33],"screen_resolution":1,"trial_type":"horizons-trial","trial_index":192,"time_elapsed":1254504,"internal_node_id":"0.0-188.0"},{"horizon":5,"rewards_L":[72,56,58,54,56],"rewards_R":[43,63,63,53,47],"key_presses":["arrowleft","arrowleft","arrowright","arrowleft","arrowleft"],"response_times":[377,258,342,376,733],"outcomes":[72,56,63,54,56],"screen_resolution":1,"trial_type":"horizons-trial","trial_index":193,"time_elapsed":1257142,"internal_node_id":"0.0-189.0"},{"horizon":10,"rewards_L":[49,39,52,51,44,42,57,48,61,69],"rewards_R":[55,58,66,38,68,59,56,56,61,58],"key_presses":["arrowright","arrowleft","arrowright","arrowleft","arrowright","arrowleft","arrowright","arrowleft","arrowright","arrowright"],"response_times":[436,296,334,251,897,230,1038,152,2394,1270],"outcomes":[55,39,66,51,68,42,56,48,61,58],"screen_resolution":1,"trial_type":"horizons-trial","trial_index":194,"time_elapsed":1265051,"internal_node_id":"0.0-190.0"},{"horizon":5,"rewards_L":[30,46,43,42,36],"rewards_R":[60,39,43,56,40],"key_presses":["arrowleft","arrowright","arrowleft","arrowright","arrowright"],"response_times":[501,256,467,217,1820],"outcomes":[30,39,43,56,40],"screen_resolution":1,"trial_type":"horizons-trial","trial_index":195,"time_elapsed":1268893,"internal_node_id":"0.0-191.0"},{"horizon":5,"rewards_L":[34,47,32,45,41],"rewards_R":[58,60,60,58,68],"key_presses":["arrowright","arrowleft","arrowright","arrowleft","arrowright"],"response_times":[524,268,302,198,1077],"outcomes":[58,47,60,45,68],"screen_resolution":1,"trial_type":"horizons-trial","trial_index":196,"time_elapsed":1272099,"internal_node_id":"0.0-192.0"},{"horizon":10,"rewards_L":[57,68,57,68,67,67,44,48,61,54],"rewards_R":[36,47,35,46,72,37,52,56,29,54],"key_presses":["arrowleft","arrowright","arrowright","arrowleft","arrowright","arrowleft","arrowright","arrowleft","arrowright","arrowright"],"response_times":[537,286,365,391,363,297,368,216,384,2642],"outcomes":[57,47,35,68,72,67,52,48,29,54],"screen_resolution":1,"trial_type":"horizons-trial","trial_index":197,"time_elapsed":1278591,"internal_node_id":"0.0-193.0"},{"horizon":5,"rewards_L":[54,68,51,67,55],"rewards_R":[46,37,29,46,52],"key_presses":["arrowright","arrowleft","arrowleft","arrowright","arrowleft"],"response_times":[517,241,340,286,2196],"outcomes":[46,68,51,46,55],"screen_resolution":1,"trial_type":"horizons-trial","trial_index":198,"time_elapsed":1282871,"internal_node_id":"0.0-194.0"},{"horizon":10,"rewards_L":[71,63,65,66,74,76,66,56,77,59],"rewards_R":[49,42,36,34,26,44,32,37,30,54],"key_presses":["arrowleft","arrowleft","arrowright","arrowleft","arrowright","arrowright","arrowleft","arrowleft","arrowright","arrowleft"],"response_times":[415,162,319,433,302,779,355,432,368,696],"outcomes":[71,63,36,66,26,44,66,56,30,59],"screen_resolution":1,"trial_type":"horizons-trial","trial_index":199,"time_elapsed":1287741,"internal_node_id":"0.0-195.0"},{"horizon":10,"rewards_L":[44,38,28,32,22,46,34,47,32,33],"rewards_R":[58,55,52,62,45,56,40,60,62,53],"key_presses":["arrowright","arrowleft","arrowleft","arrowright","arrowright","arrowleft","arrowright","arrowleft","arrowright","arrowright"],"response_times":[449,206,386,252,388,248,234,564,188,546],"outcomes":[58,38,28,62,45,46,40,47,62,53],"screen_resolution":1,"trial_type":"horizons-trial","trial_index":200,"time_elapsed":1291964,"internal_node_id":"0.0-196.0"},{"horizon":10,"rewards_L":[42,43,58,49,61,46,49,53,52,47],"rewards_R":[65,51,62,54,58,56,53,74,63,63],"key_presses":["arrowright","arrowright","arrowright","arrowleft","arrowleft","arrowright","arrowleft","arrowright","arrowright","arrowright"],"response_times":[451,428,374,388,216,322,224,330,382,447],"outcomes":[65,51,62,49,61,56,49,74,63,63],"screen_resolution":1,"trial_type":"horizons-trial","trial_index":201,"time_elapsed":1296086,"internal_node_id":"0.0-197.0"},{"horizon":10,"rewards_L":[84,64,67,62,62,67,69,70,61,62],"rewards_R":[57,61,60,43,63,55,59,50,62,58],"key_presses":["arrowright","arrowleft","arrowright","arrowright","arrowleft","arrowright","arrowleft","arrowleft","arrowright","arrowleft"],"response_times":[446,260,244,655,352,342,255,462,250,460],"outcomes":[57,64,60,43,62,55,69,70,62,62],"screen_resolution":1,"trial_type":"horizons-trial","trial_index":202,"time_elapsed":1300496,"internal_node_id":"0.0-198.0"},{"horizon":10,"rewards_L":[45,45,66,56,46,55,49,65,69,74],"rewards_R":[93,88,93,77,92,96,79,94,92,98],"key_presses":["arrowright","arrowright","arrowleft","arrowright","arrowleft","arrowleft","arrowright","arrowleft","arrowright","arrowright"],"response_times":[419,392,342,414,254,422,219,269,812,456],"outcomes":[93,88,66,77,46,55,79,65,92,98],"screen_resolution":1,"trial_type":"horizons-trial","trial_index":203,"time_elapsed":1305178,"internal_node_id":"0.0-199.0"},{"horizon":10,"rewards_L":[81,84,71,71,80,84,75,89,84,98],"rewards_R":[60,56,71,53,66,51,43,71,60,68],"key_presses":["arrowright","arrowleft","arrowleft","arrowright","arrowright","arrowright","arrowleft","arrowleft","arrowleft","arrowleft"],"response_times":[427,283,345,466,1022,169,339,409,456,390],"outcomes":[60,84,71,53,66,51,75,89,84,98],"screen_resolution":1,"trial_type":"horizons-trial","trial_index":204,"time_elapsed":1310201,"internal_node_id":"0.0-200.0"},{"horizon":5,"rewards_L":[31,34,25,24,50],"rewards_R":[58,68,71,44,57],"key_presses":["arrowleft","arrowleft","arrowright","arrowright","arrowright"],"response_times":[444,302,352,386,1110],"outcomes":[31,34,71,44,57],"screen_resolution":1,"trial_type":"horizons-trial","trial_index":205,"time_elapsed":1313334,"internal_node_id":"0.0-201.0"},{"horizon":10,"rewards_L":[24,40,48,45,40,41,29,35,30,35],"rewards_R":[16,9,28,12,18,9,21,12,11,11],"key_presses":["arrowleft","arrowleft","arrowleft","arrowright","arrowleft","arrowright","arrowright","arrowleft","arrowleft","arrowleft"],"response_times":[382,222,350,335,1368,254,450,332,412,290],"outcomes":[24,40,48,12,40,9,21,35,30,35],"screen_resolution":1,"trial_type":"horizons-trial","trial_index":206,"time_elapsed":1318407,"internal_node_id":"0.0-202.0"},{"horizon":10,"rewards_L":[44,55,25,37,65,39,44,33,37,44],"rewards_R":[30,11,43,22,42,22,27,20,19,33],"key_presses":["arrowleft","arrowleft","arrowleft","arrowright","arrowright","arrowright","arrowleft","arrowleft","arrowright","arrowleft"],"response_times":[410,248,301,348,270,362,315,372,280,719],"outcomes":[44,55,25,22,42,22,44,33,19,44],"screen_resolution":1,"trial_type":"horizons-trial","trial_index":207,"time_elapsed":1322623,"internal_node_id":"0.0-203.0"},{"horizon":10,"rewards_L":[59,65,67,65,53,58,56,58,52,61],"rewards_R":[68,70,83,77,79,73,69,81,75,77],"key_presses":["arrowright","arrowleft","arrowright","arrowleft","arrowright","arrowleft","arrowright","arrowleft","arrowright","arrowright"],"response_times":[565,314,293,287,362,262,407,187,598,598],"outcomes":[68,65,83,65,79,58,69,58,75,77],"screen_resolution":1,"trial_type":"horizons-trial","trial_index":208,"time_elapsed":1327032,"internal_node_id":"0.0-204.0"},{"horizon":10,"rewards_L":[67,68,76,60,62,72,70,68,58,72],"rewards_R":[64,64,51,60,79,68,52,76,59,68],"key_presses":["arrowleft","arrowleft","arrowright","arrowleft","arrowright","arrowleft","arrowright","arrowleft","arrowright","arrowright"],"response_times":[393,244,316,576,418,263,408,218,252,442],"outcomes":[67,68,51,60,79,72,52,68,59,68],"screen_resolution":1,"trial_type":"horizons-trial","trial_index":209,"time_elapsed":1331269,"internal_node_id":"0.0-205.0"},{"horizon":5,"rewards_L":[28,19,32,24,41],"rewards_R":[44,37,46,36,47],"key_presses":["arrowleft","arrowleft","arrowright","arrowright","arrowright"],"response_times":[369,220,292,312,738],"outcomes":[28,19,46,36,47],"screen_resolution":1,"trial_type":"horizons-trial","trial_index":210,"time_elapsed":1333859,"internal_node_id":"0.0-206.0"},{"horizon":10,"rewards_L":[56,50,64,50,54,62,61,59,77,46],"rewards_R":[67,58,47,50,50,57,47,50,46,41],"key_presses":["arrowleft","arrowleft","arrowright","arrowright","arrowright","arrowleft","arrowleft","arrowright","arrowleft","arrowleft"],"response_times":[347,188,310,258,314,274,338,848,267,735],"outcomes":[56,50,47,50,50,62,61,50,77,46],"screen_resolution":1,"trial_type":"horizons-trial","trial_index":211,"time_elapsed":1338389,"internal_node_id":"0.0-207.0"},{"horizon":5,"rewards_L":[38,26,31,46,40],"rewards_R":[11,28,2,19,20],"key_presses":["arrowleft","arrowleft","arrowright","arrowright","arrowleft"],"response_times":[394,214,342,276,438],"outcomes":[38,26,2,19,40],"screen_resolution":1,"trial_type":"horizons-trial","trial_index":212,"time_elapsed":1340687,"internal_node_id":"0.0-208.0"},{"horizon":10,"rewards_L":[2,3,23,17,7,14,6,0,6,12],"rewards_R":[49,37,55,48,46,40,42,41,41,59],"key_presses":["arrowright","arrowleft","arrowleft","arrowleft","arrowright","arrowright","arrowleft","arrowright","arrowleft","arrowright"],"response_times":[425,275,429,292,410,286,331,197,385,209],"outcomes":[49,3,23,17,46,40,6,41,6,59],"screen_resolution":1,"trial_type":"horizons-trial","trial_index":213,"time_elapsed":1344457,"internal_node_id":"0.0-209.0"},{"horizon":5,"rewards_L":[62,61,68,54,58],"rewards_R":[60,42,37,63,59],"key_presses":["arrowleft","arrowleft","arrowleft","arrowright","arrowright"],"response_times":[580,213,606,306,1253],"outcomes":[62,61,68,63,59],"screen_resolution":1,"trial_type":"horizons-trial","trial_index":214,"time_elapsed":1348167,"internal_node_id":"0.0-210.0"},{"horizon":5,"rewards_L":[83,72,78,48,73],"rewards_R":[59,57,68,53,57],"key_presses":["arrowleft","arrowright","arrowright","arrowleft","arrowleft"],"response_times":[513,346,334,267,516],"outcomes":[83,57,68,48,73],"screen_resolution":1,"trial_type":"horizons-trial","trial_index":215,"time_elapsed":1350984,"internal_node_id":"0.0-211.0"},{"horizon":10,"rewards_L":[52,57,43,66,59,59,53,66,65,57],"rewards_R":[61,62,65,71,67,50,59,74,63,65],"key_presses":["arrowleft","arrowright","arrowleft","arrowleft","arrowright","arrowleft","arrowright","arrowleft","arrowright","arrowleft"],"response_times":[362,351,265,440,299,229,210,406,368,469],"outcomes":[52,62,43,66,67,59,59,66,63,57],"screen_resolution":1,"trial_type":"horizons-trial","trial_index":216,"time_elapsed":1354887,"internal_node_id":"0.0-212.0"},{"horizon":5,"rewards_L":[61,68,48,43,49],"rewards_R":[87,60,75,67,58],"key_presses":["arrowright","arrowleft","arrowright","arrowleft","arrowright"],"response_times":[352,294,434,322,1334],"outcomes":[87,68,75,43,58],"screen_resolution":1,"trial_type":"horizons-trial","trial_index":217,"time_elapsed":1358328,"internal_node_id":"0.0-213.0"},{"horizon":5,"rewards_L":[20,14,0,12,27],"rewards_R":[49,30,52,46,40],"key_presses":["arrowright","arrowleft","arrowleft","arrowright","arrowright"],"response_times":[396,268,390,310,370],"outcomes":[49,14,0,46,40],"screen_resolution":1,"trial_type":"horizons-trial","trial_index":218,"time_elapsed":1360576,"internal_node_id":"0.0-214.0"},{"horizon":5,"rewards_L":[65,75,58,74,75],"rewards_R":[52,52,54,72,48],"key_presses":["arrowright","arrowleft","arrowright","arrowright","arrowright"],"response_times":[502,280,340,650,882],"outcomes":[52,75,54,72,48],"screen_resolution":1,"trial_type":"horizons-trial","trial_index":219,"time_elapsed":1363951,"internal_node_id":"0.0-215.0"},{"horizon":10,"rewards_L":[35,40,39,49,45,32,27,43,43,36],"rewards_R":[31,36,40,48,40,53,46,44,42,61],"key_presses":["arrowleft","arrowright","arrowright","arrowleft","arrowright","arrowleft","arrowright","arrowright","arrowleft","arrowright"],"response_times":[398,265,627,374,353,232,229,444,206,618],"outcomes":[35,36,40,49,40,32,46,44,43,61],"screen_resolution":1,"trial_type":"horizons-trial","trial_index":220,"time_elapsed":1368382,"internal_node_id":"0.0-216.0"},{"horizon":5,"rewards_L":[67,61,66,68,61],"rewards_R":[52,43,46,61,49],"key_presses":["arrowleft","arrowright","arrowleft","arrowright","arrowleft"],"response_times":[599,384,372,430,490],"outcomes":[67,43,66,61,61],"screen_resolution":1,"trial_type":"horizons-trial","trial_index":221,"time_elapsed":1371160,"internal_node_id":"0.0-217.0"},{"horizon":5,"rewards_L":[56,43,39,35,42],"rewards_R":[67,78,54,58,62],"key_presses":["arrowright","arrowright","arrowleft","arrowleft","arrowright"],"response_times":[447,332,348,280,399],"outcomes":[67,78,39,35,62],"screen_resolution":1,"trial_type":"horizons-trial","trial_index":222,"time_elapsed":1373655,"internal_node_id":"0.0-218.0"},{"horizon":5,"rewards_L":[49,52,40,37,58],"rewards_R":[47,41,34,40,45],"key_presses":["arrowright","arrowleft","arrowright","arrowright","arrowleft"],"response_times":[353,331,633,683,362],"outcomes":[47,52,34,40,58],"screen_resolution":1,"trial_type":"horizons-trial","trial_index":223,"time_elapsed":1377564,"internal_node_id":"0.0-219.0"},{"horizon":10,"rewards_L":[54,48,62,64,73,46,70,63,58,63],"rewards_R":[74,70,70,74,55,63,78,61,59,54],"key_presses":["arrowright","arrowright","arrowleft","arrowright","arrowleft","arrowright","arrowleft","arrowright","arrowleft","arrowright"],"response_times":[357,298,354,464,400,323,309,264,300,3847],"outcomes":[74,70,62,74,73,63,70,61,58,54],"screen_resolution":1,"trial_type":"horizons-trial","trial_index":224,"time_elapsed":1385214,"internal_node_id":"0.0-220.0"},{"horizon":5,"rewards_L":[63,72,63,64,56],"rewards_R":[55,59,65,73,52],"key_presses":["arrowleft","arrowright","arrowleft","arrowright","arrowright"],"response_times":[363,266,325,249,2118],"outcomes":[63,59,63,73,52],"screen_resolution":1,"trial_type":"horizons-trial","trial_index":225,"time_elapsed":1389520,"internal_node_id":"0.0-221.0"},{"horizon":10,"rewards_L":[96,88,81,93,89,97,100,97,89,95],"rewards_R":[51,56,78,49,58,48,64,58,51,57],"key_presses":["arrowleft","arrowleft","arrowright","arrowleft","arrowright","arrowleft","arrowright","arrowleft","arrowleft","arrowleft"],"response_times":[659,300,344,510,230,332,186,294,334,296],"outcomes":[96,88,78,93,58,97,64,97,89,95],"screen_resolution":1,"trial_type":"horizons-trial","trial_index":226,"time_elapsed":1393512,"internal_node_id":"0.0-222.0"},{"horizon":5,"rewards_L":[43,54,51,74,55],"rewards_R":[79,84,79,72,67],"key_presses":["arrowleft","arrowright","arrowleft","arrowleft","arrowright"],"response_times":[379,322,268,695,311],"outcomes":[43,84,51,74,67],"screen_resolution":1,"trial_type":"horizons-trial","trial_index":227,"time_elapsed":1396491,"internal_node_id":"0.0-223.0"},{"horizon":5,"rewards_L":[48,65,70,64,47],"rewards_R":[66,59,61,63,63],"key_presses":["arrowright","arrowleft","arrowright","arrowleft","arrowright"],"response_times":[767,245,480,262,872],"outcomes":[66,65,61,64,63],"screen_resolution":1,"trial_type":"horizons-trial","trial_index":228,"time_elapsed":1400007,"internal_node_id":"0.0-224.0"},{"horizon":10,"rewards_L":[62,59,51,52,56,69,75,59,61,73],"rewards_R":[62,65,58,51,80,65,54,62,53,60],"key_presses":["arrowleft","arrowright","arrowright","arrowleft","arrowleft","arrowright","arrowleft","arrowright","arrowleft","arrowleft"],"response_times":[559,238,472,303,296,281,216,221,496,374],"outcomes":[62,65,58,52,56,65,75,62,61,73],"screen_resolution":1,"trial_type":"horizons-trial","trial_index":229,"time_elapsed":1404037,"internal_node_id":"0.0-225.0"},{"horizon":10,"rewards_L":[34,42,57,58,40,43,47,39,56,41],"rewards_R":[59,56,67,56,49,43,52,50,52,53],"key_presses":["arrowright","arrowright","arrowleft","arrowleft","arrowright","arrowleft","arrowright","arrowleft","arrowright","arrowright"],"response_times":[351,308,320,244,506,170,789,110,893,526],"outcomes":[59,56,57,58,49,43,52,39,52,53],"screen_resolution":1,"trial_type":"horizons-trial","trial_index":230,"time_elapsed":1408823,"internal_node_id":"0.0-226.0"},{"horizon":10,"rewards_L":[45,42,42,37,51,41,39,33,48,43],"rewards_R":[20,25,8,6,22,19,27,15,14,6],"key_presses":["arrowright","arrowleft","arrowleft","arrowright","arrowright","arrowright","arrowleft","arrowleft","arrowleft","arrowleft"],"response_times":[393,310,590,197,700,509,491,375,1383,508],"outcomes":[20,42,42,6,22,19,39,33,48,43],"screen_resolution":1,"trial_type":"horizons-trial","trial_index":231,"time_elapsed":1415091,"internal_node_id":"0.0-227.0"},{"horizon":5,"rewards_L":[59,65,61,55,60],"rewards_R":[33,48,40,42,34],"key_presses":["arrowleft","arrowleft","arrowleft","arrowright","arrowleft"],"response_times":[393,274,304,434,1041],"outcomes":[59,65,61,42,60],"screen_resolution":1,"trial_type":"horizons-trial","trial_index":232,"time_elapsed":1418150,"internal_node_id":"0.0-228.0"},{"horizon":10,"rewards_L":[49,38,55,52,47,40,47,44,52,57],"rewards_R":[58,66,59,38,68,64,66,56,52,55],"key_presses":["arrowright","arrowright","arrowright","arrowleft","arrowleft","arrowleft","arrowright","arrowleft","arrowright","arrowright"],"response_times":[480,316,316,356,484,234,476,286,427,1380],"outcomes":[58,66,59,52,47,40,66,44,52,55],"screen_resolution":1,"trial_type":"horizons-trial","trial_index":233,"time_elapsed":1423406,"internal_node_id":"0.0-229.0"},{"horizon":5,"rewards_L":[45,35,55,50,49],"rewards_R":[51,51,61,78,57],"key_presses":["arrowright","arrowleft","arrowleft","arrowright","arrowright"],"response_times":[469,340,300,325,576],"outcomes":[51,35,55,78,57],"screen_resolution":1,"trial_type":"horizons-trial","trial_index":234,"time_elapsed":1425996,"internal_node_id":"0.0-230.0"},{"horizon":10,"rewards_L":[50,27,50,37,43,55,38,49,27,55],"rewards_R":[61,72,74,79,75,90,64,73,66,64],"key_presses":["arrowleft","arrowright","arrowright","arrowleft","arrowleft","arrowright","arrowright","arrowleft","arrowright","arrowright"],"response_times":[379,306,348,304,546,280,360,276,308,420],"outcomes":[50,72,74,37,43,90,64,49,66,64],"screen_resolution":1,"trial_type":"horizons-trial","trial_index":235,"time_elapsed":1430194,"internal_node_id":"0.0-231.0"},{"horizon":5,"rewards_L":[61,53,53,61,66],"rewards_R":[99,92,98,87,87],"key_presses":["arrowright","arrowleft","arrowright","arrowleft","arrowright"],"response_times":[557,258,332,351,453],"outcomes":[99,53,98,61,87],"screen_resolution":1,"trial_type":"horizons-trial","trial_index":236,"time_elapsed":1432860,"internal_node_id":"0.0-232.0"},{"horizon":10,"rewards_L":[27,29,47,24,29,34,28,30,29,16],"rewards_R":[45,31,38,40,38,33,42,38,49,30],"key_presses":["arrowright","arrowright","arrowleft","arrowleft","arrowright","arrowleft","arrowright","arrowleft","arrowright","arrowright"],"response_times":[467,366,336,310,382,400,358,240,1552,908],"outcomes":[45,31,47,24,38,34,42,30,49,30],"screen_resolution":1,"trial_type":"horizons-trial","trial_index":237,"time_elapsed":1438705,"internal_node_id":"0.0-233.0"},{"horizon":5,"rewards_L":[26,48,41,38,30],"rewards_R":[0,8,10,0,15],"key_presses":["arrowleft","arrowright","arrowright","arrowleft","arrowleft"],"response_times":[530,338,362,308,380],"outcomes":[26,8,10,38,30],"screen_resolution":1,"trial_type":"horizons-trial","trial_index":238,"time_elapsed":1441299,"internal_node_id":"0.0-234.0"},{"horizon":5,"rewards_L":[40,39,26,28,31],"rewards_R":[69,69,63,62,67],"key_presses":["arrowleft","arrowright","arrowleft","arrowleft","arrowleft"],"response_times":[340,264,301,581,671],"outcomes":[40,69,26,28,31],"screen_resolution":1,"trial_type":"horizons-trial","trial_index":239,"time_elapsed":1443960,"internal_node_id":"0.0-235.0"},{"horizon":10,"rewards_L":[63,63,65,56,59,43,64,50,51,63],"rewards_R":[49,50,54,39,50,58,46,45,41,61],"key_presses":["arrowright","arrowright","arrowleft","arrowleft","arrowright","arrowleft","arrowright","arrowleft","arrowright","arrowright"],"response_times":[453,292,308,204,351,187,316,174,504,626],"outcomes":[49,50,65,56,50,43,46,50,41,61],"screen_resolution":1,"trial_type":"horizons-trial","trial_index":240,"time_elapsed":1447976,"internal_node_id":"0.0-236.0"},{"horizon":10,"rewards_L":[51,54,64,51,51,67,54,61,60,53],"rewards_R":[44,37,46,42,47,38,17,40,30,35],"key_presses":["arrowleft","arrowright","arrowright","arrowright","arrowleft","arrowleft","arrowright","arrowleft","arrowleft","arrowleft"],"response_times":[423,338,556,314,482,236,346,188,418,546],"outcomes":[51,37,46,42,51,67,17,61,60,53],"screen_resolution":1,"trial_type":"horizons-trial","trial_index":241,"time_elapsed":1452409,"internal_node_id":"0.0-237.0"},{"horizon":5,"rewards_L":[52,84,69,70,63],"rewards_R":[36,29,50,36,52],"key_presses":["arrowleft","arrowleft","arrowright","arrowleft","arrowleft"],"response_times":[365,354,290,512,577],"outcomes":[52,84,50,70,63],"screen_resolution":1,"trial_type":"horizons-trial","trial_index":242,"time_elapsed":1455169,"internal_node_id":"0.0-238.0"},{"horizon":10,"rewards_L":[84,70,89,71,75,75,92,88,64,74],"rewards_R":[56,36,61,47,61,55,47,75,71,75],"key_presses":["arrowright","arrowleft","arrowright","arrowright","arrowleft","arrowleft","arrowright","arrowleft","arrowleft","arrowleft"],"response_times":[435,291,312,251,322,376,444,232,308,483],"outcomes":[56,70,61,47,75,75,47,88,64,74],"screen_resolution":1,"trial_type":"horizons-trial","trial_index":243,"time_elapsed":1459491,"internal_node_id":"0.0-239.0"},{"horizon":10,"rewards_L":[32,35,41,51,45,34,41,41,42,39],"rewards_R":[43,45,46,53,37,46,54,40,36,54],"key_presses":["arrowright","arrowright","arrowleft","arrowright","arrowleft","arrowleft","arrowleft","arrowright","arrowright","arrowright"],"response_times":[419,284,336,602,323,466,230,288,398,814],"outcomes":[43,45,41,53,45,34,41,40,36,54],"screen_resolution":1,"trial_type":"horizons-trial","trial_index":244,"time_elapsed":1464259,"internal_node_id":"0.0-240.0"},{"horizon":5,"rewards_L":[56,45,46,64,64],"rewards_R":[50,34,45,60,28],"key_presses":["arrowleft","arrowleft","arrowright","arrowleft","arrowleft"],"response_times":[387,208,340,498,511],"outcomes":[56,45,45,64,64],"screen_resolution":1,"trial_type":"horizons-trial","trial_index":245,"time_elapsed":1466915,"internal_node_id":"0.0-241.0"},{"horizon":5,"rewards_L":[53,47,58,62,71],"rewards_R":[58,58,61,55,48],"key_presses":["arrowleft","arrowright","arrowleft","arrowright","arrowleft"],"response_times":[385,323,283,301,745],"outcomes":[53,58,58,55,71],"screen_resolution":1,"trial_type":"horizons-trial","trial_index":246,"time_elapsed":1469953,"internal_node_id":"0.0-242.0"},{"horizon":5,"rewards_L":[21,49,44,43,41],"rewards_R":[44,62,57,70,64],"key_presses":["arrowright","arrowleft","arrowright","arrowleft","arrowright"],"