[{"success":true,"timeout":false,"failed_images":[],"failed_audio":[],"failed_video":[],"trial_type":"preload","trial_index":0,"time_elapsed":17,"internal_node_id":"0.0-0.0"},{"success":true,"trial_type":"fullscreen","trial_index":1,"time_elapsed":2258,"internal_node_id":"0.0-1.0"},{"rt":4977,"stimulus":"<p>你将开始实验 実験を開始します<b>Horizons task.</b></p><p>查看说明请按 “1” 键，跳过说明请按 “2” 键。説明を見るには “1” キーを押してください。スキップするには “2” キーを押してください。</p>","response":"2","trial_type":"html-keyboard-response","trial_index":2,"time_elapsed":7235,"internal_node_id":"0.0-2.0"},{"view_history":[{"page_index":0,"viewing_time":1160},{"page_index":1,"viewing_time":2199}],"rt":3360,"trial_type":"instructions","trial_index":3,"time_elapsed":10595,"internal_node_id":"0.0-4.0"},{"horizon":5,"rewards_L":[62,53,41,54,57],"rewards_R":[44,45,51,40,42],"key_presses":["arrowright","arrowright","arrowleft","arrowleft","arrowleft"],"response_times":[791,504,643,521,2082],"outcomes":[44,45,41,54,57],"screen_resolution":1,"trial_type":"horizons-trial","trial_index":4,"time_elapsed":17096,"internal_node_id":"0.0-5.0"},{"horizon":5,"rewards_L":[20,39,38,42,30],"rewards_R":[52,41,43,48,48],"key_presses":["arrowright","arrowleft","arrowleft","arrowright","arrowright"],"response_times":[1268,409,459,394,602],"outcomes":[52,39,38,48,48],"screen_resolution":1,"trial_type":"horizons-trial","trial_index":5,"time_elapsed":22159,"internal_node_id":"0.0-6.0"},{"horizon":5,"rewards_L":[24,26,40,26,23],"rewards_R":[35,45,70,36,43],"key_presses":["arrowleft","arrowright","arrowright","arrowleft","arrowright"],"response_times":[602,384,548,728,437],"outcomes":[24,45,70,26,43],"screen_resolution":1,"trial_type":"horizons-trial","trial_index":6,"time_elapsed":27313,"internal_node_id":"0.0-7.0"},{"horizon":10,"rewards_L":[23,39,46,36,28,44,44,32,38,30],"rewards_R":[39,51,55,37,37,31,32,39,36,49],"key_presses":["arrowright","arrowleft","arrowleft","arrowright","arrowleft","arrowright","arrowleft","arrowleft","arrowleft","arrowleft"],"response_times":[572,567,407,423,1326,1637,2978,703,515,481],"outcomes":[39,39,46,37,28,31,44,32,38,30],"screen_resolution":1,"trial_type":"horizons-trial","trial_index":7,"time_elapsed":37968,"internal_node_id":"0.0-8.0"},{"horizon":5,"rewards_L":[22,28,28,29,42],"rewards_R":[39,44,41,39,31],"key_presses":["arrowright","arrowright","arrowright","arrowleft","arrowright"],"response_times":[525,537,498,455,438],"outcomes":[39,44,41,29,31],"screen_resolution":1,"trial_type":"horizons-trial","trial_index":8,"time_elapsed":42261,"internal_node_id":"0.0-9.0"},{"horizon":10,"rewards_L":[63,65,53,63,70,55,79,83,67,71],"rewards_R":[70,53,58,62,69,70,60,67,71,55],"key_presses":["arrowright","arrowleft","arrowright","arrowleft","arrowright","arrowright","arrowright","arrowright","arrowright","arrowright"],"response_times":[536,481,557,504,8100,870,482,509,434,336],"outcomes":[70,65,58,63,69,70,60,67,71,55],"screen_resolution":1,"trial_type":"horizons-trial","trial_index":9,"time_elapsed":56039,"internal_node_id":"0.0-10.0"},{"horizon":10,"rewards_L":[56,60,54,54,42,53,43,51,46,36],"rewards_R":[54,40,44,28,28,48,32,39,42,39],"key_presses":["arrowright","arrowleft","arrowright","arrowright","arrowleft","arrowleft","arrowleft","arrowleft","arrowleft","arrowleft"],"response_times":[547,370,445,1170,652,680,862,772,499,229],"outcomes":[54,60,44,28,42,53,43,51,46,36],"screen_resolution":1,"trial_type":"horizons-trial","trial_index":10,"time_elapsed":62972,"internal_node_id":"0.0-11.0"},{"horizon":10,"rewards_L":[49,59,36,68,53,63,62,44,61,45],"rewards_R":[48,50,34,34,40,44,26,36,36,35],"key_presses":["arrowleft","arrowleft","arrowleft","arrowright","arrowleft","arrowleft","arrowleft","arrowleft","arrowleft","arrowleft"],"response_times":[483,657,638,417,904,743,648,286,279,708],"outcomes":[49,59,36,34,53,63,62,44,61,45],"screen_resolution":1,"trial_type":"horizons-trial","trial_index":11,"time_elapsed":69558,"internal_node_id":"0.0-12.0"},{"horizon":10,"rewards_L":[49,28,40,37,55,60,39,44,34,37],"rewards_R":[39,42,48,34,41,42,40,51,54,41],"key_presses":["arrowright","arrowleft","arrowright","arrowright","arrowright","arrowright","arrowright","arrowright","arrowright","arrowright"],"response_times":[527,369,469,517,3616,702,347,241,308,540],"outcomes":[39,28,48,34,41,42,40,51,54,41],"screen_resolution":1,"trial_type":"horizons-trial","trial_index":12,"time_elapsed":77821,"internal_node_id":"0.0-13.0"},{"horizon":10,"rewards_L":[62,53,78,77,57,81,61,65,65,75],"rewards_R":[38,38,45,48,35,36,46,58,46,35],"key_presses":["arrowleft","arrowleft","arrowright","arrowright","arrowleft","arrowleft","arrowleft","arrowleft","arrowleft","arrowleft"],"response_times":[755,512,437,520,1531,635,602,378,210,193],"outcomes":[62,53,45,48,57,81,61,65,65,75],"screen_resolution":1,"trial_type":"horizons-trial","trial_index":13,"time_elapsed":85555,"internal_node_id":"0.0-14.0"},{"horizon":5,"rewards_L":[63,64,84,70,59],"rewards_R":[43,55,37,51,43],"key_presses":["arrowright","arrowleft","arrowleft","arrowright","arrowleft"],"response_times":[513,406,593,736,375],"outcomes":[43,64,84,51,59],"screen_resolution":1,"trial_type":"horizons-trial","trial_index":14,"time_elapsed":89077,"internal_node_id":"0.0-15.0"},{"horizon":10,"rewards_L":[38,42,41,27,35,36,38,38,40,46],"rewards_R":[38,47,40,62,56,47,50,39,45,44],"key_presses":["arrowleft","arrowright","arrowleft","arrowleft","arrowright","arrowright","arrowleft","arrowright","arrowright","arrowright"],"response_times":[542,383,316,556,347,1178,503,510,635,423],"outcomes":[38,47,41,27,56,47,38,39,45,44],"screen_resolution":1,"trial_type":"horizons-trial","trial_index":15,"time_elapsed":95191,"internal_node_id":"0.0-16.0"},{"horizon":10,"rewards_L":[35,48,42,50,35,26,37,28,13,33],"rewards_R":[35,51,51,49,52,34,44,31,49,53],"key_presses":["arrowleft","arrowright","arrowright","arrowleft","arrowright","arrowright","arrowright","arrowright","arrowright","arrowright"],"response_times":[686,381,436,440,789,512,471,419,403,448],"outcomes":[35,51,51,50,52,34,44,31,49,53],"screen_resolution":1,"trial_type":"horizons-trial","trial_index":16,"time_elapsed":101102,"internal_node_id":"0.0-17.0"},{"horizon":10,"rewards_L":[53,37,41,45,28,35,16,38,46,25],"rewards_R":[50,63,47,62,59,55,62,54,62,56],"key_presses":["arrowright","arrowleft","arrowleft","arrowleft","arrowright","arrowright","arrowright","arrowright","arrowright","arrowright"],"response_times":[440,495,582,479,1461,1405,350,274,266,173],"outcomes":[50,37,41,45,59,55,62,54,62,56],"screen_resolution":1,"trial_type":"horizons-trial","trial_index":17,"time_elapsed":107789,"internal_node_id":"0.0-18.0"},{"horizon":10,"rewards_L":[58,21,36,25,36,32,36,46,49,31],"rewards_R":[40,46,51,47,34,34,57,54,36,54],"key_presses":["arrowleft","arrowright","arrowleft","arrowright","arrowleft","arrowright","arrowleft","arrowright","arrowright","arrowright"],"response_times":[467,361,433,560,1325,641,658,565,512,325],"outcomes":[58,46,36,47,36,34,36,54,36,54],"screen_resolution":1,"trial_type":"horizons-trial","trial_index":18,"time_elapsed":114202,"internal_node_id":"0.0-19.0"},{"horizon":10,"rewards_L":[56,53,60,65,55,67,59,74,41,49],"rewards_R":[67,63,72,51,54,75,67,57,63,60],"key_presses":["arrowright","arrowright","arrowright","arrowleft","arrowleft","arrowright","arrowright","arrowright","arrowright","arrowright"],"response_times":[396,420,328,391,1016,392,532,277,176,157],"outcomes":[67,63,72,65,55,75,67,57,63,60],"screen_resolution":1,"trial_type":"horizons-trial","trial_index":19,"time_elapsed":118947,"internal_node_id":"0.0-20.0"},{"horizon":10,"rewards_L":[42,64,65,49,41,45,49,49,44,49],"rewards_R":[37,51,30,45,36,34,44,43,39,32],"key_presses":["arrowleft","arrowleft","arrowright","arrowright","arrowleft","arrowright","arrowleft","arrowleft","arrowleft","arrowleft"],"response_times":[693,411,352,632,459,736,489,358,283,204],"outcomes":[42,64,30,45,41,34,49,49,44,49],"screen_resolution":1,"trial_type":"horizons-trial","trial_index":20,"time_elapsed":124334,"internal_node_id":"0.0-21.0"},{"horizon":10,"rewards_L":[63,73,62,54,65,62,70,60,66,75],"rewards_R":[33,37,25,18,27,42,28,20,41,40],"key_presses":["arrowleft","arrowleft","arrowleft","arrowright","arrowleft","arrowleft","arrowleft","arrowleft","arrowleft","arrowleft"],"response_times":[472,439,330,400,613,305,176,201,185,420],"outcomes":[63,73,62,18,65,62,70,60,66,75],"screen_resolution":1,"trial_type":"horizons-trial","trial_index":21,"time_elapsed":128847,"internal_node_id":"0.0-22.0"},{"horizon":10,"rewards_L":[46,40,36,42,35,30,39,48,53,58],"rewards_R":[38,49,41,44,46,46,51,47,28,22],"key_presses":["arrowright","arrowleft","arrowright","arrowleft","arrowleft","arrowright","arrowright","arrowright","arrowright","arrowright"],"response_times":[497,350,344,347,2665,509,476,540,196,162],"outcomes":[38,40,41,42,35,46,51,47,28,22],"screen_resolution":1,"trial_type":"horizons-trial","trial_index":22,"time_elapsed":135462,"internal_node_id":"0.0-23.0"},{"horizon":5,"rewards_L":[27,40,39,33,48],"rewards_R":[55,52,64,53,69],"key_presses":["arrowright","arrowright","arrowright","arrowleft","arrowright"],"response_times":[528,557,381,327,333],"outcomes":[55,52,64,33,69],"screen_resolution":1,"trial_type":"horizons-trial","trial_index":23,"time_elapsed":138560,"internal_node_id":"0.0-24.0"},{"horizon":10,"rewards_L":[55,64,52,56,56,68,47,60,61,67],"rewards_R":[74,66,74,76,67,73,73,77,73,72],"key_presses":["arrowright","arrowright","arrowleft","arrowright","arrowright","arrowright","arrowright","arrowright","arrowright","arrowright"],"response_times":[483,549,411,347,672,302,180,212,295,268],"outcomes":[74,66,52,76,67,73,73,77,73,72],"screen_resolution":1,"trial_type":"horizons-trial","trial_index":24,"time_elapsed":153365,"internal_node_id":"0.0-25.0"},{"horizon":5,"rewards_L":[21,22,13,26,15],"rewards_R":[46,42,32,29,46],"key_presses":["arrowright","arrowright","arrowright","arrowleft","arrowright"],"response_times":[449,445,383,373,419],"outcomes":[46,42,32,26,46],"screen_resolution":1,"trial_type":"horizons-trial","trial_index":25,"time_elapsed":156090,"internal_node_id":"0.0-26.0"},{"horizon":10,"rewards_L":[51,57,43,50,39,53,51,56,36,46],"rewards_R":[43,39,36,37,32,34,53,37,42,58],"key_presses":["arrowleft","arrowleft","arrowright","arrowleft","arrowleft","arrowleft","arrowleft","arrowleft","arrowleft","arrowleft"],"response_times":[399,463,413,392,528,294,465,207,180,286],"outcomes":[51,57,36,50,39,53,51,56,36,46],"screen_resolution":1,"trial_type":"horizons-trial","trial_index":26,"time_elapsed":160382,"internal_node_id":"0.0-27.0"},{"horizon":5,"rewards_L":[50,46,44,44,25],"rewards_R":[50,53,56,58,72],"key_presses":["arrowright","arrowright","arrowleft","arrowleft","arrowright"],"response_times":[483,395,370,450,1029],"outcomes":[50,53,44,44,72],"screen_resolution":1,"trial_type":"horizons-trial","trial_index":27,"time_elapsed":163666,"internal_node_id":"0.0-28.0"},{"horizon":5,"rewards_L":[36,33,48,55,46],"rewards_R":[15,2,15,6,23],"key_presses":["arrowright","arrowleft","arrowleft","arrowright","arrowleft"],"response_times":[458,313,504,363,574],"outcomes":[15,33,48,6,46],"screen_resolution":1,"trial_type":"horizons-trial","trial_index":28,"time_elapsed":166985,"internal_node_id":"0.0-29.0"},{"horizon":10,"rewards_L":[11,24,31,25,13,19,22,43,7,26],"rewards_R":[41,40,59,33,40,38,59,34,32,52],"key_presses":["arrowleft","arrowright","arrowright","arrowleft","arrowright","arrowright","arrowright","arrowright","arrowright","arrowright"],"response_times":[455,352,562,404,551,623,353,330,196,224],"outcomes":[11,40,59,25,40,38,59,34,32,52],"screen_resolution":1,"trial_type":"horizons-trial","trial_index":29,"time_elapsed":171636,"internal_node_id":"0.0-30.0"},{"horizon":10,"rewards_L":[39,18,24,33,38,17,24,46,39,43],"rewards_R":[35,44,43,49,27,46,44,45,36,40],"key_presses":["arrowright","arrowright","arrowright","arrowleft","arrowright","arrowleft","arrowright","arrowright","arrowright","arrowright"],"response_times":[434,420,349,395,470,5097,420,414,362,232],"outcomes":[35,44,43,33,27,17,44,45,36,40],"screen_resolution":1,"trial_type":"horizons-trial","trial_index":30,"time_elapsed":180989,"internal_node_id":"0.0-31.0"},{"horizon":5,"rewards_L":[64,63,55,43,54],"rewards_R":[49,56,55,62,67],"key_presses":["arrowright","arrowright","arrowleft","arrowleft","arrowright"],"response_times":[405,403,333,798,1374],"outcomes":[49,56,55,43,67],"screen_resolution":1,"trial_type":"horizons-trial","trial_index":31,"time_elapsed":185031,"internal_node_id":"0.0-32.0"},{"horizon":10,"rewards_L":[30,36,39,39,36,43,50,36,34,33],"rewards_R":[46,36,48,31,29,39,27,43,29,32],"key_presses":["arrowleft","arrowright","arrowright","arrowleft","arrowright","arrowleft","arrowright","arrowleft","arrowleft","arrowleft"],"response_times":[684,417,515,431,900,697,777,406,339,162],"outcomes":[30,36,48,39,29,43,27,36,34,33],"screen_resolution":1,"trial_type":"horizons-trial","trial_index":32,"time_elapsed":191053,"internal_node_id":"0.0-33.0"},{"horizon":5,"rewards_L":[43,42,38,31,39],"rewards_R":[12,28,20,18,9],"key_presses":["arrowleft","arrowright","arrowleft","arrowright","arrowleft"],"response_times":[573,322,411,495,912],"outcomes":[43,28,38,18,39],"screen_resolution":1,"trial_type":"horizons-trial","trial_index":33,"time_elapsed":194385,"internal_node_id":"0.0-34.0"},{"horizon":5,"rewards_L":[37,37,48,44,61],"rewards_R":[31,35,28,34,36],"key_presses":["arrowright","arrowleft","arrowleft","arrowright","arrowleft"],"response_times":[450,688,568,600,396],"outcomes":[31,37,48,34,61],"screen_resolution":1,"trial_type":"horizons-trial","trial_index":34,"time_elapsed":197860,"internal_node_id":"0.0-35.0"},{"horizon":10,"rewards_L":[45,55,47,43,38,36,28,38,44,34],"rewards_R":[66,64,60,38,74,76,60,66,48,57],"key_presses":["arrowright","arrowright","arrowright","arrowleft","arrowright","arrowright","arrowright","arrowright","arrowright","arrowright"],"response_times":[469,425,330,459,943,403,330,170,164,176],"outcomes":[66,64,60,43,74,76,60,66,48,57],"screen_resolution":1,"trial_type":"horizons-trial","trial_index":35,"time_elapsed":202573,"internal_node_id":"0.0-36.0"},{"horizon":10,"rewards_L":[27,39,43,32,20,43,32,44,35,32],"rewards_R":[10,9,9,12,0,4,1,2,17,9],"key_presses":["arrowright","arrowleft","arrowright","arrowleft","arrowleft","arrowleft","arrowleft","arrowleft","arrowleft","arrowleft"],"response_times":[540,369,286,369,784,498,599,159,199,843],"outcomes":[10,39,9,32,20,43,32,44,35,32],"screen_resolution":1,"trial_type":"horizons-trial","trial_index":36,"time_elapsed":207911,"internal_node_id":"0.0-37.0"},{"horizon":10,"rewards_L":[40,34,45,43,49,53,38,50,32,42],"rewards_R":[28,36,33,42,24,36,43,9,23,30],"key_presses":["arrowright","arrowleft","arrowright","arrowleft","arrowleft","arrowleft","arrowleft","arrowleft","arrowleft","arrowleft"],"response_times":[354,387,333,489,1430,549,328,165,184,176],"outcomes":[28,34,33,43,49,53,38,50,32,42],"screen_resolution":1,"trial_type":"horizons-trial","trial_index":37,"time_elapsed":212828,"internal_node_id":"0.0-38.0"},{"horizon":10,"rewards_L":[39,46,41,36,35,37,41,30,49,39],"rewards_R":[51,44,40,32,37,37,44,53,34,51],"key_presses":["arrowright","arrowleft","arrowleft","arrowleft","arrowleft","arrowright","arrowleft","arrowright","arrowright","arrowright"],"response_times":[446,313,364,403,652,448,712,358,547,377],"outcomes":[51,46,41,36,35,37,41,53,34,51],"screen_resolution":1,"trial_type":"horizons-trial","trial_index":38,"time_elapsed":218135,"internal_node_id":"0.0-39.0"},{"horizon":10,"rewards_L":[37,33,44,41,58,49,39,45,50,34],"rewards_R":[25,34,37,40,38,40,36,49,34,36],"key_presses":["arrowleft","arrowright","arrowright","arrowright","arrowleft","arrowleft","arrowleft","arrowleft","arrowleft","arrowleft"],"response_times":[687,358,1206,431,347,540,266,163,212,199],"outcomes":[37,34,37,40,58,49,39,45,50,34],"screen_resolution":1,"trial_type":"horizons-trial","trial_index":39,"time_elapsed":223235,"internal_node_id":"0.0-40.0"},{"horizon":5,"rewards_L":[79,80,86,90,87],"rewards_R":[52,75,55,61,59],"key_presses":["arrowleft","arrowright","arrowleft","arrowright","arrowleft"],"response_times":[379,367,333,411,534],"outcomes":[79,75,86,61,87],"screen_resolution":1,"trial_type":"horizons-trial","trial_index":40,"time_elapsed":226024,"internal_node_id":"0.0-41.0"},{"horizon":10,"rewards_L":[46,45,40,44,44,33,38,34,51,34],"rewards_R":[48,56,52,58,61,49,59,59,42,49],"key_presses":["arrowright","arrowleft","arrowright","arrowleft","arrowright","arrowright","arrowright","arrowright","arrowright","arrowright"],"response_times":[486,303,1139,657,1286,999,462,378,221,202],"outcomes":[48,45,52,44,61,49,59,59,42,49],"screen_resolution":1,"trial_type":"horizons-trial","trial_index":41,"time_elapsed":232922,"internal_node_id":"0.0-42.0"},{"horizon":10,"rewards_L":[70,85,84,83,69,79,91,77,83,93],"rewards_R":[54,73,61,58,63,60,66,57,56,66],"key_presses":["arrowleft","arrowright","arrowright","arrowleft","arrowleft","arrowright","arrowleft","arrowleft","arrowleft","arrowleft"],"response_times":[600,353,509,436,1167,540,417,654,164,185],"outcomes":[70,73,61,83,69,60,91,77,83,93],"screen_resolution":1,"trial_type":"horizons-trial","trial_index":42,"time_elapsed":238634,"internal_node_id":"0.0-43.0"},{"horizon":5,"rewards_L":[57,60,61,80,48],"rewards_R":[57,65,57,75,60],"key_presses":["arrowleft","arrowright","arrowright","arrowleft","arrowleft"],"response_times":[500,527,477,341,1002],"outcomes":[57,65,57,80,48],"screen_resolution":1,"trial_type":"horizons-trial","trial_index":43,"time_elapsed":242219,"internal_node_id":"0.0-44.0"},{"horizon":5,"rewards_L":[40,34,32,41,45],"rewards_R":[35,40,40,43,36],"key_presses":["arrowleft","arrowleft","arrowright","arrowleft","arrowleft"],"response_times":[698,454,422,554,546],"outcomes":[40,34,40,41,45],"screen_resolution":1,"trial_type":"horizons-trial","trial_index":44,"time_elapsed":245785,"internal_node_id":"0.0-45.0"},{"horizon":5,"rewards_L":[56,55,52,35,47],"rewards_R":[27,36,24,36,48],"key_presses":["arrowright","arrowleft","arrowright","arrowleft","arrowleft"],"response_times":[609,375,411,286,590],"outcomes":[27,55,24,35,47],"screen_resolution":1,"trial_type":"horizons-trial","trial_index":45,"time_elapsed":248696,"internal_node_id":"0.0-46.0"},{"horizon":10,"rewards_L":[66,54,63,64,61,51,65,50,63,63],"rewards_R":[79,69,74,86,71,86,67,72,77,73],"key_presses":["arrowright","arrowright","arrowleft","arrowright","arrowleft","arrowright","arrowright","arrowright","arrowright","arrowright"],"response_times":[388,568,437,400,330,498,377,174,163,193],"outcomes":[79,69,63,86,61,86,67,72,77,73],"screen_resolution":1,"trial_type":"horizons-trial","trial_index":46,"time_elapsed":253412,"internal_node_id":"0.0-47.0"},{"horizon":5,"rewards_L":[29,35,28,52,30],"rewards_R":[70,64,62,52,73],"key_presses":["arrowright","arrowleft","arrowleft","arrowleft","arrowright"],"response_times":[410,350,534,501,316],"outcomes":[70,35,28,52,73],"screen_resolution":1,"trial_type":"horizons-trial","trial_index":47,"time_elapsed":256375,"internal_node_id":"0.0-48.0"},{"horizon":10,"rewards_L":[34,40,33,19,24,30,27,28,32,35],"rewards_R":[43,44,36,38,52,53,45,39,31,26],"key_presses":["arrowright","arrowleft","arrowright","arrowleft","arrowright","arrowright","arrowright","arrowright","arrowright","arrowright"],"response_times":[466,344,328,366,342,1552,417,275,265,280],"outcomes":[43,40,36,19,52,53,45,39,31,26],"screen_resolution":1,"trial_type":"horizons-trial","trial_index":48,"time_elapsed":261725,"internal_node_id":"0.0-49.0"},{"horizon":10,"rewards_L":[42,34,40,44,55,49,54,31,56,55],"rewards_R":[36,52,42,43,42,51,32,36,41,30],"key_presses":["arrowleft","arrowright","arrowleft","arrowright","arrowright","arrowright","arrowright","arrowright","arrowright","arrowright"],"response_times":[542,330,261,461,1173,498,506,288,201,269],"outcomes":[42,52,40,43,42,51,32,36,41,30],"screen_resolution":1,"trial_type":"horizons-trial","trial_index":49,"time_elapsed":267002,"internal_node_id":"0.0-50.0"},{"horizon":10,"rewards_L":[35,50,48,46,48,53,54,33,50,45],"rewards_R":[44,44,47,49,55,40,34,32,29,42],"key_presses":["arrowright","arrowright","arrowleft","arrowleft","arrowleft","arrowleft","arrowright","arrowleft","arrowleft","arrowleft"],"response_times":[465,528,509,453,940,456,493,414,294,162],"outcomes":[44,44,48,46,48,53,34,33,50,45],"screen_resolution":1,"trial_type":"horizons-trial","trial_index":50,"time_elapsed":272796,"internal_node_id":"0.0-51.0"},{"horizon":5,"rewards_L":[82,90,83,76,91],"rewards_R":[68,56,52,68,65],"key_presses":["arrowright","arrowleft","arrowleft","arrowright","arrowleft"],"response_times":[475,277,579,507,1262],"outcomes":[68,90,83,68,91],"screen_resolution":1,"trial_type":"horizons-trial","trial_index":51,"time_elapsed":276916,"internal_node_id":"0.0-52.0"},{"horizon":5,"rewards_L":[71,68,63,45,48],"rewards_R":[59,45,72,69,55],"key_presses":["arrowright","arrowright","arrowleft","arrowleft","arrowleft"],"response_times":[410,661,579,571,1184],"outcomes":[59,45,63,45,48],"screen_resolution":1,"trial_type":"horizons-trial","trial_index":52,"time_elapsed":282798,"internal_node_id":"0.0-53.0"},{"horizon":5,"rewards_L":[49,46,32,36,29],"rewards_R":[75,71,59,84,60],"key_presses":["arrowleft","arrowright","arrowleft","arrowright","arrowright"],"response_times":[447,311,283,380,478],"outcomes":[49,71,32,84,60],"screen_resolution":1,"trial_type":"horizons-trial","trial_index":53,"time_elapsed":290979,"internal_node_id":"0.0-54.0"},{"horizon":5,"rewards_L":[59,67,67,60,50],"rewards_R":[36,61,39,30,45],"key_presses":["arrowleft","arrowright","arrowright","arrowright","arrowleft"],"response_times":[517,330,403,1147,548],"outcomes":[59,61,39,30,50],"screen_resolution":1,"trial_type":"horizons-trial","trial_index":54,"time_elapsed":295004,"internal_node_id":"0.0-55.0"},{"horizon":10,"rewards_L":[75,67,63,55,51,62,41,55,52,57],"rewards_R":[37,38,48,26,37,12,54,46,31,26],"key_presses":["arrowleft","arrowright","arrowleft","arrowright","arrowleft","arrowleft","arrowleft","arrowleft","arrowleft","arrowleft"],"response_times":[533,358,352,456,364,426,504,229,420,207],"outcomes":[75,38,63,26,51,62,41,55,52,57],"screen_resolution":1,"trial_type":"horizons-trial","trial_index":55,"time_elapsed":299376,"internal_node_id":"0.0-56.0"},{"horizon":10,"rewards_L":[22,7,18,20,20,23,17,18,16,14],"rewards_R":[29,47,37,34,57,37,20,28,23,48],"key_presses":["arrowright","arrowleft","arrowleft","arrowleft","arrowright","arrowright","arrowright","arrowright","arrowright","arrowright"],"response_times":[441,260,887,470,481,381,156,171,174,389],"outcomes":[29,7,18,20,57,37,20,28,23,48],"screen_resolution":1,"trial_type":"horizons-trial","trial_index":56,"time_elapsed":304084,"internal_node_id":"0.0-57.0"},{"horizon":5,"rewards_L":[63,55,55,51,54],"rewards_R":[51,45,39,43,54],"key_presses":["arrowleft","arrowright","arrowright","arrowright","arrowright"],"response_times":[497,288,507,509,878],"outcomes":[63,45,39,43,54],"screen_resolution":1,"trial_type":"horizons-trial","trial_index":57,"time_elapsed":307746,"internal_node_id":"0.0-58.0"},{"horizon":10,"rewards_L":[29,30,22,31,32,39,29,32,33,29],"rewards_R":[49,38,25,41,36,38,41,46,36,43],"key_presses":["arrowleft","arrowright","arrowleft","arrowright","arrowleft","arrowright","arrowright","arrowright","arrowright","arrowright"],"response_times":[609,360,364,347,369,350,1963,501,196,408],"outcomes":[29,38,22,41,32,38,41,46,36,43],"screen_resolution":1,"trial_type":"horizons-trial","trial_index":58,"time_elapsed":314121,"internal_node_id":"0.0-59.0"},{"horizon":10,"rewards_L":[63,73,71,75,56,58,69,74,61,53],"rewards_R":[52,56,57,51,60,66,59,54,65,61],"key_presses":["arrowright","arrowleft","arrowright","arrowright","arrowleft","arrowleft","arrowleft","arrowleft","arrowleft","arrowleft"],"response_times":[409,283,333,613,302,1503,383,411,190,190],"outcomes":[52,73,57,51,56,58,69,74,61,53],"screen_resolution":1,"trial_type":"horizons-trial","trial_index":59,"time_elapsed":319529,"internal_node_id":"0.0-60.0"},{"horizon":10,"rewards_L":[49,29,40,24,48,49,43,48,30,45],"rewards_R":[24,21,49,29,38,32,38,27,23,15],"key_presses":["arrowleft","arrowleft","arrowright","arrowright","arrowright","arrowleft","arrowleft","arrowright","arrowleft","arrowleft"],"response_times":[432,554,355,460,3857,529,582,926,443,158],"outcomes":[49,29,49,29,38,49,43,27,30,45],"screen_resolution":1,"trial_type":"horizons-trial","trial_index":60,"time_elapsed":328548,"internal_node_id":"0.0-61.0"},{"horizon":5,"rewards_L":[54,37,49,54,48],"rewards_R":[65,72,50,50,60],"key_presses":["arrowright","arrowright","arrowright","arrowleft","arrowright"],"response_times":[423,503,419,414,378],"outcomes":[65,72,50,54,60],"screen_resolution":1,"trial_type":"horizons-trial","trial_index":61,"time_elapsed":331265,"internal_node_id":"0.0-62.0"},{"horizon":10,"rewards_L":[36,32,37,28,20,30,10,30,31,10],"rewards_R":[50,45,47,24,45,47,37,49,34,37],"key_presses":["arrowright","arrowleft","arrowleft","arrowleft","arrowright","arrowright","arrowright","arrowright","arrowright","arrowright"],"response_times":[466,263,454,425,733,428,327,196,198,235],"outcomes":[50,32,37,28,45,47,37,49,34,37],"screen_resolution":1,"trial_type":"horizons-trial","trial_index":62,"time_elapsed":335787,"internal_node_id":"0.0-63.0"},{"horizon":10,"rewards_L":[35,23,28,25,21,35,20,12,24,31],"rewards_R":[37,30,17,53,45,38,47,39,36,19],"key_presses":["arrowleft","arrowleft","arrowright","arrowright","arrowright","arrowright","arrowright","arrowright","arrowright","arrowright"],"response_times":[406,479,302,380,1091,484,358,324,322,148],"outcomes":[35,23,17,53,45,38,47,39,36,19],"screen_resolution":1,"trial_type":"horizons-trial","trial_index":63,"time_elapsed":340863,"internal_node_id":"0.0-64.0"},{"horizon":5,"rewards_L":[23,20,23,21,34],"rewards_R":[32,47,47,45,43],"key_presses":["arrowright","arrowleft","arrowright","arrowleft","arrowright"],"response_times":[318,277,349,406,322],"outcomes":[32,20,47,21,43],"screen_resolution":1,"trial_type":"horizons-trial","trial_index":64,"time_elapsed":343179,"internal_node_id":"0.0-65.0"},{"horizon":5,"rewards_L":[57,67,54,69,57],"rewards_R":[63,60,52,50,60],"key_presses":["arrowleft","arrowleft","arrowright","arrowleft","arrowleft"],"response_times":[430,456,576,469,299],"outcomes":[57,67,52,69,57],"screen_resolution":1,"trial_type":"horizons-trial","trial_index":65,"time_elapsed":346043,"internal_node_id":"0.0-66.0"},{"horizon":5,"rewards_L":[50,41,41,59,57],"rewards_R":[50,50,29,46,37],"key_presses":["arrowleft","arrowright","arrowleft","arrowright","arrowright"],"response_times":[691,375,397,372,593],"outcomes":[50,50,41,46,37],"screen_resolution":1,"trial_type":"horizons-trial","trial_index":66,"time_elapsed":349058,"internal_node_id":"0.0-67.0"},{"horizon":10,"rewards_L":[59,59,56,61,59,59,65,48,48,42],"rewards_R":[41,41,51,48,45,49,31,41,41,46],"key_presses":["arrowleft","arrowleft","arrowright","arrowleft","arrowleft","arrowleft","arrowleft","arrowleft","arrowleft","arrowleft"],"response_times":[420,521,386,498,712,486,397,260,184,196],"outcomes":[59,59,51,61,59,59,65,48,48,42],"screen_resolution":1,"trial_type":"horizons-trial","trial_index":67,"time_elapsed":353654,"internal_node_id":"0.0-68.0"},{"horizon":10,"rewards_L":[42,45,28,19,20,33,39,16,42,16],"rewards_R":[41,40,43,39,37,51,36,36,39,36],"key_presses":["arrowright","arrowright","arrowright","arrowleft","arrowright","arrowleft","arrowright","arrowright","arrowright","arrowright"],"response_times":[424,607,1119,377,585,1077,383,190,194,363],"outcomes":[41,40,43,19,37,33,36,36,39,36],"screen_resolution":1,"trial_type":"horizons-trial","trial_index":68,"time_elapsed":359592,"internal_node_id":"0.0-69.0"},{"horizon":10,"rewards_L":[67,65,57,73,60,57,62,58,48,63],"rewards_R":[61,51,49,48,47,47,54,58,53,49],"key_presses":["arrowleft","arrowright","arrowright","arrowright","arrowleft","arrowright","arrowleft","arrowleft","arrowleft","arrowleft"],"response_times":[430,294,436,414,428,364,717,420,176,196],"outcomes":[67,51,49,48,60,47,62,58,48,63],"screen_resolution":1,"trial_type":"horizons-trial","trial_index":69,"time_elapsed":364861,"internal_node_id":"0.0-70.0"},{"horizon":10,"rewards_L":[65,70,66,58,74,67,71,57,55,60],"rewards_R":[58,61,51,63,60,50,38,65,68,65],"key_presses":["arrowleft","arrowleft","arrowleft","arrowright","arrowright","arrowleft","arrowleft","arrowleft","arrowleft","arrowleft"],"response_times":[467,658,400,330,1415,450,760,171,218,224],"outcomes":[65,70,66,63,60,67,71,57,55,60],"screen_resolution":1,"trial_type":"horizons-trial","trial_index":70,"time_elapsed":370632,"internal_node_id":"0.0-71.0"},{"horizon":10,"rewards_L":[68,57,70,69,43,46,62,67,70,50],"rewards_R":[41,55,66,52,59,55,52,54,56,47],"key_presses":["arrowleft","arrowright","arrowleft","arrowright","arrowleft","arrowleft","arrowright","arrowright","arrowleft","arrowright"],"response_times":[461,319,288,588,198,1077,473,509,375,490],"outcomes":[68,55,70,52,43,46,52,54,70,47],"screen_resolution":1,"trial_type":"horizons-trial","trial_index":71,"time_elapsed":376605,"internal_node_id":"0.0-72.0"},{"horizon":10,"rewards_L":[45,49,49,38,41,51,40,41,54,51],"rewards_R":[66,56,53,62,64,47,62,58,70,59],"key_presses":["arrowright","arrowleft","arrowleft","arrowleft","arrowright","arrowright","arrowright","arrowleft","arrowright","arrowright"],"response_times":[327,417,478,550,385,820,447,257,381,383],"outcomes":[66,49,49,38,64,47,62,41,70,59],"screen_resolution":1,"trial_type":"horizons-trial","trial_index":72,"time_elapsed":381608,"internal_node_id":"0.0-73.0"},{"horizon":5,"rewards_L":[21,32,54,25,32],"rewards_R":[59,60,81,59,60],"key_presses":["arrowright","arrowright","arrowright","arrowleft","arrowright"],"response_times":[436,380,394,537,473],"outcomes":[59,60,81,25,60],"screen_resolution":1,"trial_type":"horizons-trial","trial_index":73,"time_elapsed":384744,"internal_node_id":"0.0-74.0"},{"horizon":5,"rewards_L":[23,24,38,20,26],"rewards_R":[67,43,61,52,50],"key_presses":["arrowleft","arrowright","arrowleft","arrowright","arrowleft"],"response_times":[458,355,260,375,389],"outcomes":[23,43,38,52,26],"screen_resolution":1,"trial_type":"horizons-trial","trial_index":74,"time_elapsed":387395,"internal_node_id":"0.0-75.0"},{"horizon":5,"rewards_L":[51,56,61,63,62],"rewards_R":[41,48,56,42,44],"key_presses":["arrowleft","arrowright","arrowright","arrowleft","arrowright"],"response_times":[602,411,954,787,433],"outcomes":[51,48,56,63,44],"screen_resolution":1,"trial_type":"horizons-trial","trial_index":75,"time_elapsed":391372,"internal_node_id":"0.0-76.0"},{"horizon":5,"rewards_L":[52,52,65,66,51],"rewards_R":[84,70,60,74,82],"key_presses":["arrowleft","arrowright","arrowleft","arrowright","arrowright"],"response_times":[416,425,551,369,414],"outcomes":[52,70,65,74,82],"screen_resolution":1,"trial_type":"horizons-trial","trial_index":76,"time_elapsed":394295,"internal_node_id":"0.0-77.0"},{"horizon":5,"rewards_L":[37,30,36,47,43],"rewards_R":[37,38,35,34,25],"key_presses":["arrowleft","arrowright","arrowright","arrowright","arrowright"],"response_times":[416,403,540,800,1021],"outcomes":[37,38,35,34,25],"screen_resolution":1,"trial_type":"horizons-trial","trial_index":77,"time_elapsed":398172,"internal_node_id":"0.0-78.0"},{"horizon":10,"rewards_L":[46,47,42,50,47,39,37,48,39,45],"rewards_R":[40,57,34,39,32,28,36,28,26,33],"key_presses":["arrowleft","arrowleft","arrowleft","arrowright","arrowleft","arrowright","arrowleft","arrowleft","arrowleft","arrowleft"],"response_times":[489,363,571,498,1001,722,523,201,190,205],"outcomes":[46,47,42,39,47,28,37,48,39,45],"screen_resolution":1,"trial_type":"horizons-trial","trial_index":78,"time_elapsed":403638,"internal_node_id":"0.0-79.0"},{"horizon":5,"rewards_L":[58,39,47,42,43],"rewards_R":[53,42,50,41,60],"key_presses":["arrowright","arrowleft","arrowright","arrowright","arrowright"],"response_times":[407,535,624,545,529],"outcomes":[53,39,50,41,60],"screen_resolution":1,"trial_type":"horizons-trial","trial_index":79,"time_elapsed":406932,"internal_node_id":"0.0-80.0"},{"horizon":5,"rewards_L":[33,59,47,30,31],"rewards_R":[25,38,55,18,43],"key_presses":["arrowleft","arrowleft","arrowright","arrowright","arrowleft"],"response_times":[18771,389,319,775,1394],"outcomes":[33,59,55,18,31],"screen_resolution":1,"trial_type":"horizons-trial","trial_index":80,"time_elapsed":429382,"internal_node_id":"0.0-81.0"},{"horizon":10,"rewards_L":[27,19,21,32,37,18,19,45,36,34],"rewards_R":[58,55,70,80,59,64,45,60,77,66],"key_presses":["arrowright","arrowleft","arrowleft","arrowright","arrowright","arrowright","arrowright","arrowright","arrowright","arrowright"],"response_times":[502,336,502,257,380,238,156,151,146,321],"outcomes":[58,19,21,80,59,64,45,60,77,66],"screen_resolution":1,"trial_type":"horizons-trial","trial_index":81,"time_elapsed":433086,"internal_node_id":"0.0-82.0"},{"horizon":5,"rewards_L":[56,49,67,80,57],"rewards_R":[57,53,65,61,48],"key_presses":["arrowleft","arrowleft","arrowleft","arrowright","arrowleft"],"response_times":[424,406,456,403,374],"outcomes":[56,49,67,61,57],"screen_resolution":1,"trial_type":"horizons-trial","trial_index":82,"time_elapsed":436007,"internal_node_id":"0.0-83.0"},{"horizon":5,"rewards_L":[44,31,36,46,50],"rewards_R":[39,25,21,34,40],"key_presses":["arrowright","arrowright","arrowleft","arrowleft","arrowleft"],"response_times":[461,394,398,369,942],"outcomes":[39,25,36,46,50],"screen_resolution":1,"trial_type":"horizons-trial","trial_index":83,"time_elapsed":439527,"internal_node_id":"0.0-84.0"},{"horizon":5,"rewards_L":[52,34,25,41,41],"rewards_R":[17,19,22,24,27],"key_presses":["arrowleft","arrowleft","arrowleft","arrowright","arrowleft"],"response_times":[505,431,418,377,465],"outcomes":[52,34,25,24,41],"screen_resolution":1,"trial_type":"horizons-trial","trial_index":84,"time_elapsed":442255,"internal_node_id":"0.0-85.0"},{"horizon":5,"rewards_L":[42,48,33,43,48],"rewards_R":[31,18,30,29,26],"key_presses":["arrowleft","arrowright","arrowright","arrowright","arrowleft"],"response_times":[384,335,515,1573,716],"outcomes":[42,18,30,29,48],"screen_resolution":1,"trial_type":"horizons-trial","trial_index":85,"time_elapsed":450416,"internal_node_id":"0.0-86.0"},{"horizon":5,"rewards_L":[54,40,49,44,36],"rewards_R":[33,45,36,45,51],"key_presses":["arrowright","arrowleft","arrowright","arrowleft","arrowleft"],"response_times":[409,334,379,384,551],"outcomes":[33,40,36,44,36],"screen_resolution":1,"trial_type":"horizons-trial","trial_index":86,"time_elapsed":453006,"internal_node_id":"0.0-87.0"},{"horizon":10,"rewards_L":[36,39,35,40,47,30,39,30,41,40],"rewards_R":[86,68,65,80,66,81,54,67,85,82],"key_presses":["arrowright","arrowleft","arrowleft","arrowright","arrowright","arrowright","arrowright","arrowright","arrowright","arrowright"],"response_times":[380,356,531,355,834,497,462,185,162,179],"outcomes":[86,39,35,80,66,81,54,67,85,82],"screen_resolution":1,"trial_type":"horizons-trial","trial_index":87,"time_elapsed":458022,"internal_node_id":"0.0-88.0"},{"horizon":5,"rewards_L":[75,54,64,62,62],"rewards_R":[64,74,80,70,66],"key_presses":["arrowleft","arrowleft","arrowright","arrowright","arrowright"],"response_times":[435,490,327,554,653],"outcomes":[75,54,80,70,66],"screen_resolution":1,"trial_type":"horizons-trial","trial_index":88,"time_elapsed":461971,"internal_node_id":"0.0-89.0"},{"horizon":10,"rewards_L":[31,36,29,38,38,39,31,39,46,40],"rewards_R":[3,28,0,13,19,15,21,3,18,0],"key_presses":["arrowleft","arrowright","arrowright","arrowright","arrowleft","arrowleft","arrowleft","arrowleft","arrowleft","arrowleft"],"response_times":[449,359,722,461,770,352,417,219,185,195],"outcomes":[31,28,0,13,38,39,31,39,46,40],"screen_resolution":1,"trial_type":"horizons-trial","trial_index":89,"time_elapsed":466846,"internal_node_id":"0.0-90.0"},{"horizon":5,"rewards_L":[54,64,62,65,70],"rewards_R":[35,51,50,47,53],"key_presses":["arrowleft","arrowleft","arrowleft","arrowright","arrowleft"],"response_times":[829,440,433,353,394],"outcomes":[54,64,62,47,70],"screen_resolution":1,"trial_type":"horizons-trial","trial_index":90,"time_elapsed":470528,"internal_node_id":"0.0-91.0"},{"horizon":5,"rewards_L":[64,60,59,56,44],"rewards_R":[76,82,71,88,70],"key_presses":["arrowright","arrowleft","arrowleft","arrowright","arrowright"],"response_times":[474,422,773,553,431],"outcomes":[76,60,59,88,70],"screen_resolution":1,"trial_type":"horizons-trial","trial_index":91,"time_elapsed":475348,"internal_node_id":"0.0-92.0"},{"horizon":10,"rewards_L":[49,42,43,36,41,41,30,32,19,32],"rewards_R":[26,23,14,23,11,19,26,29,29,6],"key_presses":["arrowleft","arrowleft","arrowleft","arrowright","arrowleft","arrowleft","arrowleft","arrowleft","arrowleft","arrowleft"],"response_times":[454,384,380,338,571,744,227,227,193,268],"outcomes":[49,42,43,23,41,41,30,32,19,32],"screen_resolution":1,"trial_type":"horizons-trial","trial_index":92,"time_elapsed":480012,"internal_node_id":"0.0-93.0"},{"horizon":5,"rewards_L":[45,52,50,56,70],"rewards_R":[48,31,29,40,24],"key_presses":["arrowleft","arrowleft","arrowright","arrowright","arrowleft"],"response_times":[611,526,389,526,383],"outcomes":[45,52,29,40,70],"screen_resolution":1,"trial_type":"horizons-trial","trial_index":93,"time_elapsed":483379,"internal_node_id":"0.0-94.0"},{"horizon":10,"rewards_L":[43,55,68,59,37,56,54,55,54,51],"rewards_R":[57,60,51,61,63,51,53,51,51,62],"key_presses":["arrowleft","arrowright","arrowright","arrowleft","arrowright","arrowleft","arrowright","arrowright","arrowleft","arrowright"],"response_times":[402,325,492,495,1053,472,448,403,330,439],"outcomes":[43,60,51,59,63,56,53,51,54,62],"screen_resolution":1,"trial_type":"horizons-trial","trial_index":94,"time_elapsed":489101,"internal_node_id":"0.0-95.0"},{"horizon":5,"rewards_L":[67,69,80,66,79],"rewards_R":[58,55,56,57,59],"key_presses":["arrowright","arrowleft","arrowright","arrowleft","arrowleft"],"response_times":[411,322,460,467,347],"outcomes":[58,69,56,66,79],"screen_resolution":1,"trial_type":"horizons-trial","trial_index":95,"time_elapsed":492913,"internal_node_id":"0.0-96.0"},{"horizon":5,"rewards_L":[60,58,82,73,67],"rewards_R":[26,42,39,32,24],"key_presses":["arrowleft","arrowright","arrowright","arrowright","arrowleft"],"response_times":[444,425,501,837,386],"outcomes":[60,42,39,32,67],"screen_resolution":1,"trial_type":"horizons-trial","trial_index":96,"time_elapsed":496515,"internal_node_id":"0.0-97.0"},{"horizon":10,"rewards_L":[34,22,35,41,31,28,24,39,31,44],"rewards_R":[37,72,68,55,59,65,68,62,69,56],"key_presses":["arrowright","arrowright","arrowright","arrowleft","arrowright","arrowright","arrowright","arrowright","arrowright","arrowright"],"response_times":[472,422,444,380,445,464,635,341,316,254],"outcomes":[37,72,68,41,59,65,68,62,69,56],"screen_resolution":1,"trial_type":"horizons-trial","trial_index":97,"time_elapsed":501262,"internal_node_id":"0.0-98.0"},{"horizon":10,"rewards_L":[48,52,58,55,56,54,77,57,54,60],"rewards_R":[82,81,68,81,85,75,65,66,78,90],"key_presses":["arrowright","arrowleft","arrowleft","arrowright","arrowright","arrowright","arrowright","arrowright","arrowright","arrowright"],"response_times":[427,344,664,375,890,352,238,149,165,355],"outcomes":[82,52,58,81,85,75,65,66,78,90],"screen_resolution":1,"trial_type":"horizons-trial","trial_index":98,"time_elapsed":505851,"internal_node_id":"0.0-99.0"},{"horizon":5,"rewards_L":[64,52,64,69,58],"rewards_R":[42,42,24,55,44],"key_presses":["arrowright","arrowright","arrowleft","arrowleft","arrowleft"],"response_times":[426,445,408,348,716],"outcomes":[42,42,64,69,58],"screen_resolution":1,"trial_type":"horizons-trial","trial_index":99,"time_elapsed":509178,"internal_node_id":"0.0-100.0"},{"horizon":10,"rewards_L":[61,53,48,62,47,53,56,52,57,52],"rewards_R":[33,39,34,30,35,38,40,40,48,38],"key_presses":["arrowright","arrowleft","arrowright","arrowright","arrowleft","arrowleft","arrowleft","arrowleft","arrowleft","arrowleft"],"response_times":[441,299,355,719,344,870,312,216,187,263],"outcomes":[33,53,34,30,47,53,56,52,57,52],"screen_resolution":1,"trial_type":"horizons-trial","trial_index":100,"time_elapsed":514034,"internal_node_id":"0.0-101.0"},{"horizon":10,"rewards_L":[66,65,57,64,56,61,63,52,67,76],"rewards_R":[74,70,82,78,68,77,68,64,78,89],"key_presses":["arrowleft","arrowright","arrowright","arrowleft","arrowright","arrowleft","arrowright","arrowright","arrowright","arrowright"],"response_times":[452,336,503,347,518,487,531,366,193,163],"outcomes":[66,70,82,64,68,61,68,64,78,89],"screen_resolution":1,"trial_type":"horizons-trial","trial_index":101,"time_elapsed":518746,"internal_node_id":"0.0-102.0"},{"horizon":10,"rewards_L":[58,59,57,50,54,54,61,62,46,74],"rewards_R":[66,80,86,97,84,70,80,71,79,89],"key_presses":["arrowleft","arrowright","arrowleft","arrowleft","arrowright","arrowright","arrowright","arrowright","arrowright","arrowright"],"response_times":[423,360,325,618,678,394,372,297,383,229],"outcomes":[58,80,57,50,84,70,80,71,79,89],"screen_resolution":1,"trial_type":"horizons-trial","trial_index":102,"time_elapsed":523909,"internal_node_id":"0.0-103.0"},{"horizon":5,"rewards_L":[100,81,79,84,91],"rewards_R":[64,53,72,52,51],"key_presses":["arrowleft","arrowright","arrowright","arrowleft","arrowleft"],"response_times":[665,439,588,238,446],"outcomes":[100,53,72,84,91],"screen_resolution":1,"trial_type":"horizons-trial","trial_index":103,"time_elapsed":528651,"internal_node_id":"0.0-104.0"},{"horizon":10,"rewards_L":[100,100,84,91,98,81,87,80,90,97],"rewards_R":[68,61,74,60,54,68,64,70,67,65],"key_presses":["arrowright","arrowleft","arrowright","arrowright","arrowleft","arrowleft","arrowleft","arrowleft","arrowleft","arrowleft"],"response_times":[491,369,314,638,313,319,227,154,137,145],"outcomes":[68,100,74,60,98,81,87,80,90,97],"screen_resolution":1,"trial_type":"horizons-trial","trial_index":104,"time_elapsed":532283,"internal_node_id":"0.0-105.0"},{"horizon":10,"rewards_L":[39,46,41,35,45,35,33,42,47,42],"rewards_R":[29,27,18,30,34,34,26,22,40,18],"key_presses":["arrowright","arrowright","arrowleft","arrowleft","arrowright","arrowleft","arrowright","arrowleft","arrowleft","arrowleft"],"response_times":[452,652,389,490,403,658,1111,503,574,370],"outcomes":[29,27,41,35,34,35,26,42,47,42],"screen_resolution":1,"trial_type":"horizons-trial","trial_index":105,"time_elapsed":539696,"internal_node_id":"0.0-106.0"},{"horizon":5,"rewards_L":[31,50,32,40,40],"rewards_R":[68,64,55,70,63],"key_presses":["arrowright","arrowright","arrowleft","arrowright","arrowright"],"response_times":[458,400,454,372,224],"outcomes":[68,64,32,70,63],"screen_resolution":1,"trial_type":"horizons-trial","trial_index":106,"time_elapsed":545646,"internal_node_id":"0.0-107.0"},{"horizon":5,"rewards_L":[79,87,63,74,83],"rewards_R":[63,70,52,61,59],"key_presses":["arrowleft","arrowleft","arrowright","arrowleft","arrowleft"],"response_times":[631,459,378,448,204],"outcomes":[79,87,52,74,83],"screen_resolution":1,"trial_type":"horizons-trial","trial_index":107,"time_elapsed":548442,"internal_node_id":"0.0-108.0"},{"horizon":10,"rewards_L":[62,62,62,71,62,57,55,55,76,66],"rewards_R":[52,62,59,56,38,59,63,48,49,55],"key_presses":["arrowright","arrowleft","arrowright","arrowleft","arrowleft","arrowright","arrowleft","arrowleft","arrowright","arrowleft"],"response_times":[451,440,369,383,521,443,315,344,409,414],"outcomes":[52,62,59,71,62,59,55,55,49,66],"screen_resolution":1,"trial_type":"horizons-trial","trial_index":108,"time_elapsed":553207,"internal_node_id":"0.0-109.0"},{"horizon":5,"rewards_L":[21,33,44,28,39],"rewards_R":[46,35,36,34,50],"key_presses":["arrowleft","arrowright","arrowleft","arrowright","arrowright"],"response_times":[443,300,367,274,1723],"outcomes":[21,35,44,34,50],"screen_resolution":1,"trial_type":"horizons-trial","trial_index":109,"time_elapsed":557273,"internal_node_id":"0.0-110.0"},{"horizon":10,"rewards_L":[37,30,46,36,41,34,39,35,50,40],"rewards_R":[58,59,50,49,70,45,60,51,59,65],"key_presses":["arrowleft","arrowright","arrowleft","arrowleft","arrowright","arrowleft","arrowright","arrowright","arrowright","arrowright"],"response_times":[424,294,310,523,362,482,509,282,162,160],"outcomes":[37,59,46,36,70,34,60,51,59,65],"screen_resolution":1,"trial_type":"horizons-trial","trial_index":110,"time_elapsed":561631,"internal_node_id":"0.0-111.0"},{"horizon":5,"rewards_L":[55,45,45,38,44],"rewards_R":[60,69,59,51,61],"key_presses":["arrowleft","arrowright","arrowright","arrowleft","arrowright"],"response_times":[601,389,562,713,373],"outcomes":[55,69,59,38,61],"screen_resolution":1,"trial_type":"horizons-trial","trial_index":111,"time_elapsed":565105,"internal_node_id":"0.0-112.0"},{"horizon":5,"rewards_L":[47,46,53,55,37],"rewards_R":[54,50,50,55,56],"key_presses":["arrowright","arrowright","arrowright","arrowleft","arrowleft"],"response_times":[363,453,395,405,4697],"outcomes":[54,50,50,55,37],"screen_resolution":1,"trial_type":"horizons-trial","trial_index":112,"time_elapsed":572407,"internal_node_id":"0.0-113.0"},{"horizon":5,"rewards_L":[33,38,44,27,31],"rewards_R":[62,47,49,47,58],"key_presses":["arrowright","arrowleft","arrowleft","arrowleft","arrowright"],"response_times":[407,308,456,369,607],"outcomes":[62,38,44,27,58],"screen_resolution":1,"trial_type":"horizons-trial","trial_index":113,"time_elapsed":575215,"internal_node_id":"0.0-114.0"},{"horizon":10,"rewards_L":[51,52,52,60,59,58,59,69,49,64],"rewards_R":[43,41,47,36,52,44,36,45,43,40],"key_presses":["arrowright","arrowright","arrowleft","arrowleft","arrowright","arrowleft","arrowleft","arrowleft","arrowleft","arrowleft"],"response_times":[472,318,378,534,322,478,557,439,263,159],"outcomes":[43,41,52,60,52,58,59,69,49,64],"screen_resolution":1,"trial_type":"horizons-trial","trial_index":114,"time_elapsed":579867,"internal_node_id":"0.0-115.0"},{"horizon":5,"rewards_L":[52,53,56,52,58],"rewards_R":[77,75,75,66,75],"key_presses":["arrowleft","arrowright","arrowleft","arrowleft","arrowright"],"response_times":[676,356,408,562,425],"outcomes":[52,75,56,52,75],"screen_resolution":1,"trial_type":"horizons-trial","trial_index":115,"time_elapsed":583518,"internal_node_id":"0.0-116.0"},{"horizon":10,"rewards_L":[80,78,87,66,88,86,82,82,83,86],"rewards_R":[56,55,55,54,53,65,64,62,63,53],"key_presses":["arrowleft","arrowleft","arrowright","arrowleft","arrowleft","arrowleft","arrowleft","arrowleft","arrowleft","arrowleft"],"response_times":[404,402,389,386,345,383,349,331,333,335],"outcomes":[80,78,55,66,88,86,82,82,83,86],"screen_resolution":1,"trial_type":"horizons-trial","trial_index":116,"time_elapsed":587683,"internal_node_id":"0.0-117.0"},{"horizon":10,"rewards_L":[28,46,27,51,43,45,33,44,41,47],"rewards_R":[32,20,20,38,24,29,30,27,18,25],"key_presses":["arrowleft","arrowright","arrowleft","arrowright","arrowleft","arrowright","arrowleft","arrowright","arrowleft","arrowleft"],"response_times":[780,369,334,475,347,381,607,1341,800,645],"outcomes":[28,20,27,38,43,29,33,27,41,47],"screen_resolution":1,"trial_type":"horizons-trial","trial_index":117,"time_elapsed":594454,"internal_node_id":"0.0-118.0"},{"horizon":10,"rewards_L":[70,44,57,48,41,57,65,71,55,43],"rewards_R":[54,56,66,61,53,54,65,56,58,61],"key_presses":["arrowleft","arrowleft","arrowright","arrowright","arrowleft","arrowright","arrowright","arrowright","arrowright","arrowright"],"response_times":[408,710,652,3086,1430,478,1891,540,308,322],"outcomes":[70,44,66,61,41,54,65,56,58,61],"screen_resolution":1,"trial_type":"horizons-trial","trial_index":118,"time_elapsed":607653,"internal_node_id":"0.0-119.0"},{"horizon":10,"rewards_L":[61,57,64,67,45,62,55,61,59,61],"rewards_R":[35,34,33,34,29,36,22,24,25,20],"key_presses":["arrowright","arrowleft","arrowleft","arrowright","arrowleft","arrowleft","arrowleft","arrowleft","arrowleft","arrowleft"],"response_times":[480,314,445,369,683,1251,601,196,418,220],"outcomes":[35,57,64,34,45,62,55,61,59,61],"screen_resolution":1,"trial_type":"horizons-trial","trial_index":119,"time_elapsed":613451,"internal_node_id":"0.0-120.0"},{"horizon":10,"rewards_L":[32,37,24,40,50,41,35,39,49,33],"rewards_R":[65,64,44,68,70,58,62,63,69,49],"key_presses":["arrowleft","arrowright","arrowleft","arrowright","arrowright","arrowright","arrowright","arrowright","arrowright","arrowright"],"response_times":[495,333,265,344,722,535,319,188,325,187],"outcomes":[32,64,24,68,70,58,62,63,69,49],"screen_resolution":1,"trial_type":"horizons-trial","trial_index":120,"time_elapsed":617900,"internal_node_id":"0.0-121.0"},{"horizon":10,"rewards_L":[50,40,43,31,39,58,33,42,36,39],"rewards_R":[41,58,37,49,39,30,36,40,38,40],"key_presses":["arrowleft","arrowright","arrowleft","arrowleft","arrowright","arrowleft","arrowright","arrowright","arrowleft","arrowleft"],"response_times":[530,347,433,540,367,560,585,123,414,202],"outcomes":[50,58,43,31,39,58,36,40,36,39],"screen_resolution":1,"trial_type":"horizons-trial","trial_index":121,"time_elapsed":622626,"internal_node_id":"0.0-122.0"},{"horizon":5,"rewards_L":[34,52,42,47,41],"rewards_R":[49,58,41,39,53],"key_presses":["arrowleft","arrowleft","arrowright","arrowright","arrowleft"],"response_times":[676,444,290,438,616],"outcomes":[34,52,41,39,41],"screen_resolution":1,"trial_type":"horizons-trial","trial_index":122,"time_elapsed":625665,"internal_node_id":"0.0-123.0"},{"horizon":5,"rewards_L":[71,82,78,71,50],"rewards_R":[37,50,42,47,33],"key_presses":["arrowright","arrowright","arrowleft","arrowleft","arrowleft"],"response_times":[385,443,370,603,230],"outcomes":[37,50,78,71,50],"screen_resolution":1,"trial_type":"horizons-trial","trial_index":123,"time_elapsed":628293,"internal_node_id":"0.0-124.0"},{"horizon":5,"rewards_L":[24,17,44,39,36],"rewards_R":[16,3,5,24,7],"key_presses":["arrowleft","arrowleft","arrowleft","arrowright","arrowleft"],"response_times":[407,610,299,356,664],"outcomes":[24,17,44,24,36],"screen_resolution":1,"trial_type":"horizons-trial","trial_index":124,"time_elapsed":631149,"internal_node_id":"0.0-125.0"},{"horizon":5,"rewards_L":[38,31,39,36,51],"rewards_R":[0,5,19,1,0],"key_presses":["arrowleft","arrowright","arrowright","arrowright","arrowleft"],"response_times":[392,350,524,663,232],"outcomes":[38,5,19,1,51],"screen_resolution":1,"trial_type":"horizons-trial","trial_index":125,"time_elapsed":634100,"internal_node_id":"0.0-126.0"},{"horizon":10,"rewards_L":[33,35,37,24,64,42,43,36,39,37],"rewards_R":[31,28,39,33,50,25,36,30,43,35],"key_presses":["arrowright","arrowright","arrowright","arrowleft","arrowright","arrowleft","arrowright","arrowright","arrowright","arrowright"],"response_times":[481,511,350,417,404,419,377,218,154,221],"outcomes":[31,28,39,24,50,42,36,30,43,35],"screen_resolution":1,"trial_type":"horizons-trial","trial_index":126,"time_elapsed":638313,"internal_node_id":"0.0-127.0"},{"horizon":10,"rewards_L":[40,40,46,47,42,31,27,50,35,38],"rewards_R":[56,57,58,55,71,55,51,49,66,67],"key_presses":["arrowleft","arrowleft","arrowright","arrowright","arrowright","arrowright","arrowright","arrowright","arrowright","arrowright"],"response_times":[424,453,342,310,674,333,177,191,187,204],"outcomes":[40,40,58,55,71,55,51,49,66,67],"screen_resolution":1,"trial_type":"horizons-trial","trial_index":127,"time_elapsed":642345,"internal_node_id":"0.0-128.0"},{"horizon":10,"rewards_L":[10,12,12,7,3,17,8,12,12,14],"rewards_R":[31,45,32,32,41,36,33,32,41,38],"key_presses":["arrowright","arrowright","arrowright","arrowleft","arrowright","arrowright","arrowright","arrowright","arrowright","arrowright"],"response_times":[432,364,442,266,888,266,184,175,181,383],"outcomes":[31,45,32,7,41,36,33,32,41,38],"screen_resolution":1,"trial_type":"horizons-trial","trial_index":128,"time_elapsed":648712,"internal_node_id":"0.0-129.0"},{"horizon":5,"rewards_L":[23,29,30,27,41],"rewards_R":[40,44,55,39,41],"key_presses":["arrowright","arrowright","arrowright","arrowleft","arrowright"],"response_times":[1117,484,330,485,400],"outcomes":[40,44,55,27,41],"screen_resolution":1,"trial_type":"horizons-trial","trial_index":129,"time_elapsed":653086,"internal_node_id":"0.0-130.0"},{"horizon":10,"rewards_L":[68,56,65,54,52,62,66,54,59,53],"rewards_R":[35,36,39,64,55,45,28,43,47,34],"key_presses":["arrowleft","arrowleft","arrowright","arrowleft","arrowright","arrowleft","arrowright","arrowleft","arrowleft","arrowleft"],"response_times":[452,417,350,370,333,912,454,358,229,154],"outcomes":[68,56,39,54,55,62,28,54,59,53],"screen_resolution":1,"trial_type":"horizons-trial","trial_index":130,"time_elapsed":657718,"internal_node_id":"0.0-131.0"},{"horizon":10,"rewards_L":[54,72,61,38,61,52,55,65,71,55],"rewards_R":[82,86,83,88,81,94,83,84,96,95],"key_presses":["arrowleft","arrowright","arrowleft","arrowleft","arrowright","arrowright","arrowright","arrowright","arrowright","arrowright"],"response_times":[396,325,266,565,232,246,218,171,182,224],"outcomes":[54,86,61,38,81,94,83,84,96,95],"screen_resolution":1,"trial_type":"horizons-trial","trial_index":131,"time_elapsed":661095,"internal_node_id":"0.0-132.0"},{"horizon":10,"rewards_L":[61,49,34,31,39,31,34,39,44,39],"rewards_R":[18,21,28,20,14,23,23,20,17,14],"key_presses":["arrowleft","arrowright","arrowright","arrowleft","arrowright","arrowleft","arrowleft","arrowleft","arrowleft","arrowleft"],"response_times":[610,343,559,308,389,431,299,272,215,182],"outcomes":[61,21,28,31,14,31,34,39,44,39],"screen_resolution":1,"trial_type":"horizons-trial","trial_index":132,"time_elapsed":665391,"internal_node_id":"0.0-133.0"},{"horizon":10,"rewards_L":[53,59,47,61,67,60,53,64,60,66],"rewards_R":[46,32,39,40,27,22,23,39,40,42],"key_presses":["arrowleft","arrowright","arrowright","arrowright","arrowleft","arrowleft","arrowleft","arrowleft","arrowleft","arrowleft"],"response_times":[413,311,537,336,333,526,241,190,160,148],"outcomes":[53,32,39,40,67,60,53,64,60,66],"screen_resolution":1,"trial_type":"horizons-trial","trial_index":133,"time_elapsed":669200,"internal_node_id":"0.0-134.0"},{"horizon":10,"rewards_L":[44,61,47,62,54,56,53,55,36,51],"rewards_R":[53,54,57,53,67,62,60,59,69,63],"key_presses":["arrowright","arrowleft","arrowleft","arrowleft","arrowright","arrowright","arrowleft","arrowright","arrowleft","arrowright"],"response_times":[388,263,509,630,336,859,344,427,486,347],"outcomes":[53,61,47,62,67,62,53,59,36,63],"screen_resolution":1,"trial_type":"horizons-trial","trial_index":134,"time_elapsed":674576,"internal_node_id":"0.0-135.0"},{"horizon":10,"rewards_L":[28,33,36,36,27,51,37,33,22,43],"rewards_R":[34,29,30,27,35,33,41,23,30,44],"key_presses":["arrowleft","arrowright","arrowright","arrowright","arrowleft","arrowright","arrowright","arrowleft","arrowright","arrowright"],"response_times":[643,338,619,655,333,481,456,395,339,235],"outcomes":[28,29,30,27,27,33,41,33,30,44],"screen_resolution":1,"trial_type":"horizons-trial","trial_index":135,"time_elapsed":679748,"internal_node_id":"0.0-136.0"},{"horizon":10,"rewards_L":[0,9,0,3,6,22,13,11,4,18],"rewards_R":[41,41,44,40,44,51,38,25,30,43],"key_presses":["arrowright","arrowright","arrowleft","arrowleft","arrowright","arrowright","arrowright","arrowright","arrowright","arrowright"],"response_times":[363,526,428,498,442,229,168,200,188,192],"outcomes":[41,41,0,3,44,51,38,25,30,43],"screen_resolution":1,"trial_type":"horizons-trial","trial_index":136,"time_elapsed":683692,"internal_node_id":"0.0-137.0"},{"horizon":5,"rewards_L":[89,77,82,70,83],"rewards_R":[61,53,56,66,69],"key_presses":["arrowleft","arrowleft","arrowright","arrowleft","arrowleft"],"response_times":[605,383,420,353,170],"outcomes":[89,77,56,70,83],"screen_resolution":1,"trial_type":"horizons-trial","trial_index":137,"time_elapsed":686394,"internal_node_id":"0.0-138.0"},{"horizon":5,"rewards_L":[61,47,63,68,63],"rewards_R":[64,75,66,67,62],"key_presses":["arrowright","arrowright","arrowleft","arrowright","arrowright"],"response_times":[359,336,405,320,472],"outcomes":[64,75,63,67,62],"screen_resolution":1,"trial_type":"horizons-trial","trial_index":138,"time_elapsed":689723,"internal_node_id":"0.0-139.0"},{"horizon":5,"rewards_L":[43,32,44,25,26],"rewards_R":[35,53,38,55,35],"key_presses":["arrowright","arrowleft","arrowleft","arrowleft","arrowright"],"response_times":[490,553,596,641,386],"outcomes":[35,32,44,25,35],"screen_resolution":1,"trial_type":"horizons-trial","trial_index":139,"time_elapsed":693214,"internal_node_id":"0.0-140.0"},{"horizon":5,"rewards_L":[81,58,74,58,71],"rewards_R":[63,71,65,68,52],"key_presses":["arrowright","arrowleft","arrowright","arrowright","arrowright"],"response_times":[393,305,352,697,316],"outcomes":[63,58,65,68,52],"screen_resolution":1,"trial_type":"horizons-trial","trial_index":140,"time_elapsed":696192,"internal_node_id":"0.0-141.0"},{"horizon":10,"rewards_L":[63,46,70,65,61,61,56,67,52,54],"rewards_R":[68,80,75,81,72,65,57,57,53,70],"key_presses":["arrowleft","arrowright","arrowleft","arrowright","arrowright","arrowright","arrowright","arrowright","arrowright","arrowright"],"response_times":[507,325,590,384,386,272,179,322,256,232],"outcomes":[63,80,70,81,72,65,57,57,53,70],"screen_resolution":1,"trial_type":"horizons-trial","trial_index":141,"time_elapsed":700412,"internal_node_id":"0.0-142.0"},{"horizon":5,"rewards_L":[48,37,58,51,44],"rewards_R":[55,50,59,65,49],"key_presses":["arrowright","arrowright","arrowleft","arrowright","arrowright"],"response_times":[463,671,185,691,591],"outcomes":[55,50,58,65,49],"screen_resolution":1,"trial_type":"horizons-trial","trial_index":142,"time_elapsed":704344,"internal_node_id":"0.0-143.0"},{"horizon":5,"rewards_L":[60,59,59,58,51],"rewards_R":[39,34,52,38,28],"key_presses":["arrowright","arrowleft","arrowright","arrowright","arrowright"],"response_times":[492,352,305,442,401],"outcomes":[39,59,52,38,28],"screen_resolution":1,"trial_type":"horizons-trial","trial_index":143,"time_elapsed":708120,"internal_node_id":"0.0-144.0"},{"horizon":5,"rewards_L":[27,35,38,47,41],"rewards_R":[35,34,47,26,42],"key_presses":["arrowright","arrowleft","arrowleft","arrowleft","arrowright"],"response_times":[483,394,448,560,394],"outcomes":[35,35,38,47,42],"screen_resolution":1,"trial_type":"horizons-trial","trial_index":144,"time_elapsed":711892,"internal_node_id":"0.0-145.0"},{"horizon":10,"rewards_L":[42,54,57,43,50,50,57,42,44,42],"rewards_R":[48,48,39,46,29,56,52,33,40,37],"key_presses":["arrowright","arrowleft","arrowleft","arrowright","arrowleft","arrowright","arrowleft","arrowright","arrowleft","arrowleft"],"response_times":[384,347,448,394,560,613,414,560,423,397],"outcomes":[48,54,57,46,50,56,57,33,44,42],"screen_resolution":1,"trial_type":"horizons-trial","trial_index":145,"time_elapsed":717196,"internal_node_id":"0.0-146.0"},{"horizon":10,"rewards_L":[57,53,51,62,62,51,60,66,53,64],"rewards_R":[74,72,81,61,77,63,83,63,83,87],"key_presses":["arrowleft","arrowright","arrowleft","arrowleft","arrowright","arrowright","arrowright","arrowright","arrowright","arrowright"],"response_times":[479,361,364,545,963,277,171,190,247,246],"outcomes":[57,72,51,62,77,63,83,63,83,87],"screen_resolution":1,"trial_type":"horizons-trial","trial_index":146,"time_elapsed":725875,"internal_node_id":"0.0-147.0"},{"horizon":10,"rewards_L":[69,62,49,58,53,66,46,55,58,56],"rewards_R":[65,53,51,61,57,56,66,43,64,64],"key_presses":["arrowright","arrowleft","arrowleft","arrowleft","arrowright","arrowleft","arrowright","arrowleft","arrowright","arrowright"],"response_times":[396,377,9088,742,361,487,455,605,378,501],"outcomes":[65,62,49,58,57,66,66,55,64,64],"screen_resolution":1,"trial_type":"horizons-trial","trial_index":147,"time_elapsed":740957,"internal_node_id":"0.0-148.0"},{"horizon":5,"rewards_L":[16,38,19,29,39],"rewards_R":[51,33,49,40,34],"key_presses":["arrowright","arrowleft","arrowleft","arrowleft","arrowright"],"response_times":[393,322,657,492,336],"outcomes":[51,38,19,29,34],"screen_resolution":1,"trial_type":"horizons-trial","trial_index":148,"time_elapsed":744025,"internal_node_id":"0.0-149.0"},{"horizon":5,"rewards_L":[46,43,49,48,41],"rewards_R":[50,44,51,53,67],"key_presses":["arrowleft","arrowright","arrowleft","arrowleft","arrowleft"],"response_times":[441,342,397,534,1167],"outcomes":[46,44,49,48,41],"screen_resolution":1,"trial_type":"horizons-trial","trial_index":149,"time_elapsed":748535,"internal_node_id":"0.0-150.0"},{"horizon":5,"rewards_L":[76,59,68,70,71],"rewards_R":[62,80,72,55,78],"key_presses":["arrowleft","arrowright","arrowleft","arrowleft","arrowright"],"response_times":[520,280,403,582,258],"outcomes":[76,80,68,70,78],"screen_resolution":1,"trial_type":"horizons-trial","trial_index":150,"time_elapsed":752367,"internal_node_id":"0.0-151.0"},{"horizon":10,"rewards_L":[78,57,47,53,79,51,64,50,49,59],"rewards_R":[66,59,48,58,67,54,66,72,71,67],"key_presses":["arrowleft","arrowleft","arrowright","arrowright","arrowleft","arrowright","arrowleft","arrowleft","arrowleft","arrowleft"],"response_times":[444,426,377,434,426,576,347,297,215,171],"outcomes":[78,57,48,58,79,54,64,50,49,59],"screen_resolution":1,"trial_type":"horizons-trial","trial_index":151,"time_elapsed":756775,"internal_node_id":"0.0-152.0"},{"horizon":10,"rewards_L":[50,52,46,48,57,46,53,40,38,53],"rewards_R":[32,42,39,35,38,42,49,39,35,42],"key_presses":["arrowleft","arrowright","arrowright","arrowleft","arrowright","arrowleft","arrowleft","arrowleft","arrowleft","arrowleft"],"response_times":[434,329,582,448,468,293,428,333,182,154],"outcomes":[50,42,39,48,38,46,53,40,38,53],"screen_resolution":1,"trial_type":"horizons-trial","trial_index":152,"time_elapsed":762224,"internal_node_id":"0.0-153.0"},{"horizon":10,"rewards_L":[44,46,38,40,56,37,41,47,44,40],"rewards_R":[41,35,42,60,35,33,35,44,27,39],"key_presses":["arrowleft","arrowleft","arrowright","arrowleft","arrowright","arrowleft","arrowright","arrowleft","arrowright","arrowleft"],"response_times":[499,434,370,462,1556,672,624,400,594,293],"outcomes":[44,46,42,40,35,37,35,47,27,40],"screen_resolution":1,"trial_type":"horizons-trial","trial_index":153,"time_elapsed":769456,"internal_node_id":"0.0-154.0"},{"horizon":10,"rewards_L":[69,58,49,64,52,59,56,52,63,58],"rewards_R":[42,54,46,45,55,39,58,49,39,56],"key_presses":["arrowleft","arrowright","arrowright","arrowright","arrowright","arrowleft","arrowleft","arrowleft","arrowleft","arrowleft"],"response_times":[441,378,647,460,752,1080,389,182,174,201],"outcomes":[69,54,46,45,55,59,56,52,63,58],"screen_resolution":1,"trial_type":"horizons-trial","trial_index":154,"time_elapsed":775322,"internal_node_id":"0.0-155.0"},{"horizon":10,"rewards_L":[37,31,44,37,48,40,38,35,48,45],"rewards_R":[49,33,32,39,65,32,53,32,43,41],"key_presses":["arrowleft","arrowleft","arrowright","arrowright","arrowleft","arrowright","arrowleft","arrowright","arrowleft","arrowleft"],"response_times":[609,706,305,434,1769,542,484,608,369,210],"outcomes":[37,31,32,39,48,32,38,32,48,45],"screen_resolution":1,"trial_type":"horizons-trial","trial_index":155,"time_elapsed":782004,"internal_node_id":"0.0-156.0"},{"horizon":10,"rewards_L":[83,100,84,86,84,86,91,100,98,81],"rewards_R":[62,58,64,66,62,60,61,54,59,50],"key_presses":["arrowright","arrowright","arrowleft","arrowleft","arrowleft","arrowleft","arrowleft","arrowleft","arrowleft","arrowleft"],"response_times":[381,426,512,605,817,405,165,204,188,486],"outcomes":[62,58,84,86,84,86,91,100,98,81],"screen_resolution":1,"trial_type":"horizons-trial","trial_index":156,"time_elapsed":787415,"internal_node_id":"0.0-157.0"},{"horizon":10,"rewards_L":[38,26,26,48,34,41,32,23,38,46],"rewards_R":[32,46,51,50,38,42,68,63,50,51],"key_presses":["arrowleft","arrowright","arrowleft","arrowleft","arrowright","arrowright","arrowleft","arrowright","arrowright","arrowright"],"response_times":[542,377,386,412,940,300,672,394,196,398],"outcomes":[38,46,26,48,38,42,32,63,50,51],"screen_resolution":1,"trial_type":"horizons-trial","trial_index":157,"time_elapsed":792786,"internal_node_id":"0.0-158.0"},{"horizon":5,"rewards_L":[99,97,70,99,84],"rewards_R":[63,68,70,60,58],"key_presses":["arrowleft","arrowleft","arrowright","arrowleft","arrowleft"],"response_times":[404,627,503,389,361],"outcomes":[99,97,70,99,84],"screen_resolution":1,"trial_type":"horizons-trial","trial_index":158,"time_elapsed":796214,"internal_node_id":"0.0-159.0"},{"horizon":10,"rewards_L":[56,69,79,60,64,63,67,70,66,52],"rewards_R":[42,52,40,46,50,51,46,58,46,50],"key_presses":["arrowleft","arrowright","arrowright","arrowright","arrowleft","arrowleft","arrowleft","arrowleft","arrowleft","arrowleft"],"response_times":[405,429,414,489,386,851,490,540,417,464],"outcomes":[56,52,40,46,64,63,67,70,66,52],"screen_resolution":1,"trial_type":"horizons-trial","trial_index":159,"time_elapsed":801859,"internal_node_id":"0.0-160.0"},{"horizon":10,"rewards_L":[47,25,42,45,41,45,50,36,45,39],"rewards_R":[27,11,11,14,31,28,23,24,17,30],"key_presses":["arrowleft","arrowright","arrowright","arrowright","arrowleft","arrowleft","arrowleft","arrowleft","arrowleft","arrowleft"],"response_times":[449,507,436,760,370,369,348,374,344,390],"outcomes":[47,11,11,14,41,45,50,36,45,39],"screen_resolution":1,"trial_type":"horizons-trial","trial_index":160,"time_elapsed":807069,"internal_node_id":"0.0-161.0"},{"horizon":10,"rewards_L":[40,46,22,45,33,27,39,48,34,39],"rewards_R":[66,64,57,49,61,61,74,56,64,66],"key_presses":["arrowleft","arrowright","arrowleft","arrowright","arrowleft","arrowright","arrowright","arrowright","arrowright","arrowright"],"response_times":[429,479,476,498,462,971,223,168,166,189],"outcomes":[40,64,22,49,33,61,74,56,64,66],"screen_resolution":1,"trial_type":"horizons-trial","trial_index":161,"time_elapsed":811976,"internal_node_id":"0.0-162.0"},{"horizon":5,"rewards_L":[66,57,51,65,64],"rewards_R":[53,37,36,40,45],"key_presses":["arrowleft","arrowright","arrowright","arrowleft","arrowleft"],"response_times":[426,425,809,230,165],"outcomes":[66,37,36,65,64],"screen_resolution":1,"trial_type":"horizons-trial","trial_index":162,"time_elapsed":815235,"internal_node_id":"0.0-163.0"},{"horizon":10,"rewards_L":[13,32,33,21,28,27,39,22,35,31],"rewards_R":[21,33,33,34,32,29,39,38,36,58],"key_presses":["arrowright","arrowleft","arrowleft","arrowleft","arrowright","arrowleft","arrowright","arrowright","arrowright","arrowright"],"response_times":[444,414,453,370,387,541,405,412,187,174],"outcomes":[21,32,33,21,32,27,39,38,36,58],"screen_resolution":1,"trial_type":"horizons-trial","trial_index":163,"time_elapsed":819951,"internal_node_id":"0.0-164.0"},{"horizon":10,"rewards_L":[33,40,42,28,23,34,56,33,32,34],"rewards_R":[46,55,50,55,52,48,45,57,60,65],"key_presses":["arrowright","arrowright","arrowleft","arrowright","arrowleft","arrowright","arrowright","arrowright","arrowright","arrowright"],"response_times":[434,465,428,441,442,454,383,140,154,218],"outcomes":[46,55,42,55,23,48,45,57,60,65],"screen_resolution":1,"trial_type":"horizons-trial","trial_index":164,"time_elapsed":824458,"internal_node_id":"0.0-165.0"},{"horizon":5,"rewards_L":[51,54,45,35,48],"rewards_R":[48,43,35,50,40],"key_presses":["arrowleft","arrowright","arrowright","arrowleft","arrowleft"],"response_times":[834,476,921,408,441],"outcomes":[51,43,35,35,48],"screen_resolution":1,"trial_type":"horizons-trial","trial_index":165,"time_elapsed":828444,"internal_node_id":"0.0-166.0"},{"horizon":5,"rewards_L":[63,48,67,65,54],"rewards_R":[89,86,92,86,87],"key_presses":["arrowleft","arrowright","arrowleft","arrowleft","arrowright"],"response_times":[460,465,481,991,437],"outcomes":[63,86,67,65,87],"screen_resolution":1,"trial_type":"horizons-trial","trial_index":166,"time_elapsed":832193,"internal_node_id":"0.0-167.0"},{"horizon":5,"rewards_L":[16,15,23,32,20],"rewards_R":[27,30,59,28,32],"key_presses":["arrowleft","arrowright","arrowleft","arrowright","arrowright"],"response_times":[477,453,439,453,437],"outcomes":[16,30,23,28,32],"screen_resolution":1,"trial_type":"horizons-trial","trial_index":167,"time_elapsed":835405,"internal_node_id":"0.0-168.0"},{"horizon":10,"rewards_L":[38,38,34,39,26,58,30,53,46,31],"rewards_R":[69,42,67,61,52,59,64,62,53,55],"key_presses":["arrowright","arrowright","arrowleft","arrowright","arrowright","arrowright","arrowright","arrowright","arrowright","arrowright"],"response_times":[419,440,431,470,719,377,202,176,263,263],"outcomes":[69,42,34,61,52,59,64,62,53,55],"screen_resolution":1,"trial_type":"horizons-trial","trial_index":168,"time_elapsed":840067,"internal_node_id":"0.0-169.0"},{"horizon":5,"rewards_L":[88,79,66,95,82],"rewards_R":[63,57,59,61,63],"key_presses":["arrowleft","arrowleft","arrowright","arrowright","arrowleft"],"response_times":[542,540,459,467,549],"outcomes":[88,79,59,61,82],"screen_resolution":1,"trial_type":"horizons-trial","trial_index":169,"time_elapsed":843965,"internal_node_id":"0.0-170.0"},{"horizon":5,"rewards_L":[50,50,71,63,55],"rewards_R":[58,58,56,57,53],"key_presses":["arrowleft","arrowright","arrowright","arrowright","arrowright"],"response_times":[455,490,444,456,720],"outcomes":[50,58,56,57,53],"screen_resolution":1,"trial_type":"horizons-trial","trial_index":170,"time_elapsed":847775,"internal_node_id":"0.0-171.0"},{"horizon":5,"rewards_L":[55,58,64,65,68],"rewards_R":[71,57,77,63,68],"key_presses":["arrowright","arrowright","arrowleft","arrowright","arrowright"],"response_times":[483,442,498,478,932],"outcomes":[71,57,64,63,68],"screen_resolution":1,"trial_type":"horizons-trial","trial_index":171,"time_elapsed":852458,"internal_node_id":"0.0-172.0"},{"horizon":10,"rewards_L":[37,32,24,28,36,37,42,25,20,23],"rewards_R":[64,54,68,59,55,46,72,58,51,53],"key_presses":["arrowleft","arrowright","arrowright","arrowleft","arrowright","arrowright","arrowright","arrowright","arrowright","arrowright"],"response_times":[555,403,462,470,730,434,388,370,403,402],"outcomes":[37,54,68,28,55,46,72,58,51,53],"screen_resolution":1,"trial_type":"horizons-trial","trial_index":172,"time_elapsed":858387,"internal_node_id":"0.0-173.0"},{"horizon":10,"rewards_L":[54,44,35,31,46,46,47,44,41,54],"rewards_R":[56,69,75,69,62,71,62,53,49,56],"key_presses":["arrowright","arrowright","arrowleft","arrowleft","arrowright","arrowright","arrowright","arrowright","arrowright","arrowright"],"response_times":[430,372,438,425,397,328,173,159,137,272],"outcomes":[56,69,35,31,62,71,62,53,49,56],"screen_resolution":1,"trial_type":"horizons-trial","trial_index":173,"time_elapsed":862381,"internal_node_id":"0.0-174.0"},{"horizon":5,"rewards_L":[41,39,38,47,36],"rewards_R":[54,69,50,48,56],"key_presses":["arrowright","arrowleft","arrowleft","arrowleft","arrowright"],"response_times":[458,512,506,467,439],"outcomes":[54,39,38,47,56],"screen_resolution":1,"trial_type":"horizons-trial","trial_index":174,"time_elapsed":865757,"internal_node_id":"0.0-175.0"},{"horizon":5,"rewards_L":[36,30,34,43,30],"rewards_R":[31,42,41,35,28],"key_presses":["arrowleft","arrowright","arrowleft","arrowright","arrowleft"],"response_times":[830,487,405,420,487],"outcomes":[36,42,34,35,30],"screen_resolution":1,"trial_type":"horizons-trial","trial_index":175,"time_elapsed":869973,"internal_node_id":"0.0-176.0"},{"horizon":5,"rewards_L":[39,46,45,41,42],"rewards_R":[51,49,57,51,52],"key_presses":["arrowleft","arrowright","arrowright","arrowleft","arrowright"],"response_times":[468,467,448,442,416],"outcomes":[39,49,57,41,52],"screen_resolution":1,"trial_type":"horizons-trial","trial_index":176,"time_elapsed":873814,"internal_node_id":"0.0-177.0"},{"horizon":5,"rewards_L":[47,60,55,62,64],"rewards_R":[35,52,47,70,49],"key_presses":["arrowleft","arrowright","arrowright","arrowright","arrowright"],"response_times":[402,405,434,459,487],"outcomes":[47,52,47,70,49],"screen_resolution":1,"trial_type":"horizons-trial","trial_index":177,"time_elapsed":881858,"internal_node_id":"0.0-178.0"},{"horizon":5,"rewards_L":[62,81,60,62,60],"rewards_R":[75,64,55,70,52],"key_presses":["arrowright","arrowleft","arrowleft","arrowright","arrowright"],"response_times":[413,341,618,373,1130],"outcomes":[75,81,60,70,52],"screen_resolution":1,"trial_type":"horizons-trial","trial_index":178,"time_elapsed":886556,"internal_node_id":"0.0-179.0"},{"horizon":5,"rewards_L":[65,60,75,45,58],"rewards_R":[83,82,92,71,64],"key_presses":["arrowright","arrowright","arrowleft","arrowright","arrowright"],"response_times":[399,369,426,310,302],"outcomes":[83,82,75,71,64],"screen_resolution":1,"trial_type":"horizons-trial","trial_index":179,"time_elapsed":908401,"internal_node_id":"0.0-180.0"},{"horizon":5,"rewards_L":[0,10,0,6,17],"rewards_R":[42,48,49,63,33],"key_presses":["arrowright","arrowleft","arrowleft","arrowleft","arrowright"],"response_times":[334,322,447,549,268],"outcomes":[42,10,0,6,33],"screen_resolution":1,"trial_type":"horizons-trial","trial_index":180,"time_elapsed":921870,"internal_node_id":"0.0-181.0"},{"horizon":10,"rewards_L":[82,76,79,78,93,71,72,83,77,84],"rewards_R":[65,67,52,52,61,47,71,66,62,52],"key_presses":["arrowleft","arrowleft","arrowright","arrowright","arrowleft","arrowleft","arrowleft","arrowleft","arrowleft","arrowleft"],"response_times":[454,350,327,420,291,249,170,153,132,384],"outcomes":[82,76,52,52,93,71,72,83,77,84],"screen_resolution":1,"trial_type":"horizons-trial","trial_index":181,"time_elapsed":932301,"internal_node_id":"0.0-182.0"},{"horizon":5,"rewards_L":[44,48,37,41,44],"rewards_R":[33,27,27,16,15],"key_presses":["arrowleft","arrowleft","arrowleft","arrowright","arrowleft"],"response_times":[453,682,361,375,422],"outcomes":[44,48,37,16,44],"screen_resolution":1,"trial_type":"horizons-trial","trial_index":182,"time_elapsed":936268,"internal_node_id":"0.0-183.0"},{"horizon":10,"rewards_L":[59,57,47,62,60,59,50,72,59,56],"rewards_R":[42,44,45,47,30,51,50,32,53,37],"key_presses":["arrowright","arrowleft","arrowright","arrowright","arrowleft","arrowleft","arrowleft","arrowleft","arrowleft","arrowleft"],"response_times":[474,314,347,532,288,478,417,314,356,290],"outcomes":[42,57,45,47,60,59,50,72,59,56],"screen_resolution":1,"trial_type":"horizons-trial","trial_index":183,"time_elapsed":948578,"internal_node_id":"0.0-184.0"},{"horizon":10,"rewards_L":[57,50,77,69,52,47,68,54,66,68],"rewards_R":[16,22,27,34,20,14,23,34,34,29],"key_presses":["arrowleft","arrowright","arrowright","arrowleft","arrowleft","arrowleft","arrowleft","arrowleft","arrowleft","arrowleft"],"response_times":[477,339,364,254,255,212,168,148,162,568],"outcomes":[57,22,27,69,52,47,68,54,66,68],"screen_resolution":1,"trial_type":"horizons-trial","trial_index":184,"time_elapsed":963164,"internal_node_id":"0.0-185.0"},{"horizon":10,"rewards_L":[40,49,58,49,68,48,46,55,35,54],"rewards_R":[59,58,45,68,63,57,49,62,49,75],"key_presses":["arrowright","arrowleft","arrowleft","arrowright","arrowright","arrowright","arrowright","arrowright","arrowright","arrowright"],"response_times":[420,298,395,335,593,442,395,1698,288,196],"outcomes":[59,49,58,68,63,57,49,62,49,75],"screen_resolution":1,"trial_type":"horizons-trial","trial_index":185,"time_elapsed":973863,"internal_node_id":"0.0-186.0"},{"horizon":5,"rewards_L":[81,80,74,72,76],"rewards_R":[32,36,38,36,32],"key_presses":["arrowright","arrowleft","arrowright","arrowleft","arrowleft"],"response_times":[459,273,336,236,181],"outcomes":[32,80,38,72,76],"screen_resolution":1,"trial_type":"horizons-trial","trial_index":186,"time_elapsed":976034,"internal_node_id":"0.0-187.0"},{"horizon":5,"rewards_L":[29,37,21,23,31],"rewards_R":[27,39,44,48,33],"key_presses":["arrowright","arrowright","arrowright","arrowleft","arrowright"],"response_times":[360,509,305,282,684],"outcomes":[27,39,44,23,33],"screen_resolution":1,"trial_type":"horizons-trial","trial_index":187,"time_elapsed":987471,"internal_node_id":"0.0-188.0"},{"horizon":5,"rewards_L":[72,56,58,54,56],"rewards_R":[43,63,63,53,47],"key_presses":["arrowleft","arrowleft","arrowright","arrowleft","arrowright"],"response_times":[499,412,349,492,1500],"outcomes":[72,56,63,54,47],"screen_resolution":1,"trial_type":"horizons-trial","trial_index":188,"time_elapsed":991449,"internal_node_id":"0.0-189.0"},{"horizon":10,"rewards_L":[49,39,52,51,44,42,57,48,61,69],"rewards_R":[55,58,66,38,68,59,56,56,61,58],"key_presses":["arrowright","arrowleft","arrowright","arrowleft","arrowright","arrowright","arrowright","arrowright","arrowright","arrowright"],"response_times":[357,307,327,434,414,383,151,154,179,161],"outcomes":[55,39,66,51,68,59,56,56,61,58],"screen_resolution":1,"trial_type":"horizons-trial","trial_index":189,"time_elapsed":1002498,"internal_node_id":"0.0-190.0"},{"horizon":5,"rewards_L":[30,46,43,42,36],"rewards_R":[60,39,43,56,40],"key_presses":["arrowleft","arrowright","arrowleft","arrowright","arrowright"],"response_times":[441,339,355,339,453],"outcomes":[30,39,43,56,40],"screen_resolution":1,"trial_type":"horizons-trial","trial_index":190,"time_elapsed":1010687,"internal_node_id":"0.0-191.0"},{"horizon":5,"rewards_L":[34,47,32,45,41],"rewards_R":[58,60,60,58,68],"key_presses":["arrowright","arrowleft","arrowright","arrowleft","arrowright"],"response_times":[430,286,280,372,260],"outcomes":[58,47,60,45,68],"screen_resolution":1,"trial_type":"horizons-trial","trial_index":191,"time_elapsed":1019022,"internal_node_id":"0.0-192.0"},{"horizon":10,"rewards_L":[57,68,57,68,67,67,44,48,61,54],"rewards_R":[36,47,35,46,72,37,52,56,29,54],"key_presses":["arrowleft","arrowright","arrowright","arrowleft","arrowleft","arrowleft","arrowleft","arrowleft","arrowleft","arrowleft"],"response_times":[422,282,558,301,409,193,157,156,151,317],"outcomes":[57,47,35,68,67,67,44,48,61,54],"screen_resolution":1,"trial_type":"horizons-trial","trial_index":192,"time_elapsed":1030466,"internal_node_id":"0.0-193.0"},{"horizon":5,"rewards_L":[54,68,51,67,55],"rewards_R":[46,37,29,46,52],"key_presses":["arrowright","arrowleft","arrowleft","arrowright","arrowleft"],"response_times":[353,299,415,470,366],"outcomes":[46,68,51,46,55],"screen_resolution":1,"trial_type":"horizons-trial","trial_index":193,"time_elapsed":1032959,"internal_node_id":"0.0-194.0"},{"horizon":10,"rewards_L":[71,63,65,66,74,76,66,56,77,59],"rewards_R":[49,42,36,34,26,44,32,37,30,54],"key_presses":["arrowleft","arrowleft","arrowright","arrowleft","arrowleft","arrowleft","arrowleft","arrowleft","arrowleft","arrowleft"],"response_times":[413,416,331,369,338,202,159,165,428,632],"outcomes":[71,63,36,66,74,76,66,56,77,59],"screen_resolution":1,"trial_type":"horizons-trial","trial_index":194,"time_elapsed":1037298,"internal_node_id":"0.0-195.0"},{"horizon":10,"rewards_L":[44,38,28,32,22,46,34,47,32,33],"rewards_R":[58,55,52,62,45,56,40,60,62,53],"key_presses":["arrowright","arrowleft","arrowleft","arrowright","arrowright","arrowright","arrowleft","arrowright","arrowright","arrowright"],"response_times":[334,314,419,269,375,422,305,257,223,263],"outcomes":[58,38,28,62,45,56,34,60,62,53],"screen_resolution":1,"trial_type":"horizons-trial","trial_index":195,"time_elapsed":1042050,"internal_node_id":"0.0-196.0"},{"horizon":10,"rewards_L":[42,43,58,49,61,46,49,53,52,47],"rewards_R":[65,51,62,54,58,56,53,74,63,63],"key_presses":["arrowright","arrowright","arrowright","arrowleft","arrowright","arrowright","arrowright","arrowright","arrowright","arrowright"],"response_times":[352,333,344,372,361,369,193,191,195,341],"outcomes":[65,51,62,49,58,56,53,74,63,63],"screen_resolution":1,"trial_type":"horizons-trial","trial_index":196,"time_elapsed":1046242,"internal_node_id":"0.0-197.0"},{"horizon":10,"rewards_L":[84,64,67,62,62,67,69,70,61,62],"rewards_R":[57,61,60,43,63,55,59,50,62,58],"key_presses":["arrowright","arrowleft","arrowright","arrowright","arrowleft","arrowleft","arrowleft","arrowleft","arrowleft","arrowleft"],"response_times":[465,344,378,677,296,529,347,170,174,224],"outcomes":[57,64,60,43,62,67,69,70,61,62],"screen_resolution":1,"trial_type":"horizons-trial","trial_index":197,"time_elapsed":1056725,"internal_node_id":"0.0-198.0"},{"horizon":10,"rewards_L":[45,45,66,56,46,55,49,65,69,74],"rewards_R":[93,88,93,77,92,96,79,94,92,98],"key_presses":["arrowright","arrowright","arrowleft","arrowright","arrowright","arrowright","arrowright","arrowright","arrowright","arrowright"],"response_times":[413,347,350,322,327,265,205,187,185,221],"outcomes":[93,88,66,77,92,96,79,94,92,98],"screen_resolution":1,"trial_type":"horizons-trial","trial_index":198,"time_elapsed":1060227,"internal_node_id":"0.0-199.0"},{"horizon":10,"rewards_L":[81,84,71,71,80,84,75,89,84,98],"rewards_R":[60,56,71,53,66,51,43,71,60,68],"key_presses":["arrowright","arrowleft","arrowleft","arrowright","arrowleft","arrowleft","arrowleft","arrowleft","arrowleft","arrowleft"],"response_times":[450,355,884,506,425,319,243,171,187,428],"outcomes":[60,84,71,53,80,84,75,89,84,98],"screen_resolution":1,"trial_type":"horizons-trial","trial_index":199,"time_elapsed":1066057,"internal_node_id":"0.0-200.0"},{"horizon":5,"rewards_L":[31,34,25,24,50],"rewards_R":[58,68,71,44,57],"key_presses":["arrowleft","arrowleft","arrowright","arrowright","arrowright"],"response_times":[421,711,319,408,769],"outcomes":[31,34,71,44,57],"screen_resolution":1,"trial_type":"horizons-trial","trial_index":200,"time_elapsed":1072626,"internal_node_id":"0.0-201.0"},{"horizon":10,"rewards_L":[24,40,48,45,40,41,29,35,30,35],"rewards_R":[16,9,28,12,18,9,21,12,11,11],"key_presses":["arrowleft","arrowleft","arrowleft","arrowright","arrowleft","arrowleft","arrowleft","arrowleft","arrowleft","arrowleft"],"response_times":[502,431,412,324,1247,442,367,344,656,497],"outcomes":[24,40,48,12,40,41,29,35,30,35],"screen_resolution":1,"trial_type":"horizons-trial","trial_index":201,"time_elapsed":1078399,"internal_node_id":"0.0-202.0"},{"horizon":10,"rewards_L":[44,55,25,37,65,39,44,33,37,44],"rewards_R":[30,11,43,22,42,22,27,20,19,33],"key_presses":["arrowleft","arrowleft","arrowleft","arrowright","arrowleft","arrowleft","arrowleft","arrowleft","arrowleft","arrowleft"],"response_times":[422,372,353,562,512,487,187,171,196,294],"outcomes":[44,55,25,22,65,39,44,33,37,44],"screen_resolution":1,"trial_type":"horizons-trial","trial_index":202,"time_elapsed":1082764,"internal_node_id":"0.0-203.0"},{"horizon":10,"rewards_L":[59,65,67,65,53,58,56,58,52,61],"rewards_R":[68,70,83,77,79,73,69,81,75,77],"key_presses":["arrowright","arrowleft","arrowright","arrowleft","arrowright","arrowright","arrowright","arrowright","arrowright","arrowright"],"response_times":[427,344,428,520,697,537,218,182,246,272],"outcomes":[68,65,83,65,79,73,69,81,75,77],"screen_resolution":1,"trial_type":"horizons-trial","trial_index":203,"time_elapsed":1087162,"internal_node_id":"0.0-204.0"},{"horizon":10,"rewards_L":[67,68,76,60,62,72,70,68,58,72],"rewards_R":[64,64,51,60,79,68,52,76,59,68],"key_presses":["arrowleft","arrowleft","arrowright","arrowleft","arrowright","arrowright","arrowright","arrowleft","arrowright","arrowleft"],"response_times":[452,478,355,440,333,1409,484,983,534,609],"outcomes":[67,68,51,60,79,68,52,68,59,72],"screen_resolution":1,"trial_type":"horizons-trial","trial_index":204,"time_elapsed":1093975,"internal_node_id":"0.0-205.0"},{"horizon":5,"rewards_L":[28,19,32,24,41],"rewards_R":[44,37,46,36,47],"key_presses":["arrowleft","arrowleft","arrowright","arrowright","arrowright"],"response_times":[469,554,295,458,339],"outcomes":[28,19,46,36,47],"screen_resolution":1,"trial_type":"horizons-trial","trial_index":205,"time_elapsed":1097294,"internal_node_id":"0.0-206.0"},{"horizon":10,"rewards_L":[56,50,64,50,54,62,61,59,77,46],"rewards_R":[67,58,47,50,50,57,47,50,46,41],"key_presses":["arrowleft","arrowleft","arrowright","arrowright","arrowleft","arrowright","arrowleft","arrowright","arrowleft","arrowleft"],"response_times":[458,471,344,375,1058,442,459,512,383,222],"outcomes":[56,50,47,50,54,57,61,50,77,46],"screen_resolution":1,"trial_type":"horizons-trial","trial_index":206,"time_elapsed":1102814,"internal_node_id":"0.0-207.0"},{"horizon":5,"rewards_L":[38,26,31,46,40],"rewards_R":[11,28,2,19,20],"key_presses":["arrowleft","arrowleft","arrowright","arrowright","arrowleft"],"response_times":[416,529,302,501,252],"outcomes":[38,26,2,19,40],"screen_resolution":1,"trial_type":"horizons-trial","trial_index":207,"time_elapsed":1105388,"internal_node_id":"0.0-208.0"},{"horizon":10,"rewards_L":[2,3,23,17,7,14,6,0,6,12],"rewards_R":[49,37,55,48,46,40,42,41,41,59],"key_presses":["arrowright","arrowleft","arrowleft","arrowleft","arrowright","arrowright","arrowright","arrowright","arrowright","arrowright"],"response_times":[391,378,604,887,308,266,173,181,177,252],"outcomes":[49,3,23,17,46,40,42,41,41,59],"screen_resolution":1,"trial_type":"horizons-trial","trial_index":208,"time_elapsed":1109547,"internal_node_id":"0.0-209.0"},{"horizon":5,"rewards_L":[62,61,68,54,58],"rewards_R":[60,42,37,63,59],"key_presses":["arrowleft","arrowleft","arrowleft","arrowright","arrowleft"],"response_times":[427,492,613,350,931],"outcomes":[62,61,68,63,58],"screen_resolution":1,"trial_type":"horizons-trial","trial_index":209,"time_elapsed":1114258,"internal_node_id":"0.0-210.0"},{"horizon":5,"rewards_L":[83,72,78,48,73],"rewards_R":[59,57,68,53,57],"key_presses":["arrowleft","arrowright","arrowright","arrowleft","arrowleft"],"response_times":[489,392,613,341,1041],"outcomes":[83,57,68,48,73],"screen_resolution":1,"trial_type":"horizons-trial","trial_index":210,"time_elapsed":1119566,"internal_node_id":"0.0-211.0"},{"horizon":10,"rewards_L":[52,57,43,66,59,59,53,66,65,57],"rewards_R":[61,62,65,71,67,50,59,74,63,65],"key_presses":["arrowleft","arrowright","arrowleft","arrowleft","arrowright","arrowleft","arrowright","arrowright","arrowleft","arrowright"],"response_times":[390,406,403,2244,413,476,377,409,355,414],"outcomes":[52,62,43,66,67,59,59,74,65,65],"screen_resolution":1,"trial_type":"horizons-trial","trial_index":211,"time_elapsed":1127493,"internal_node_id":"0.0-212.0"},{"horizon":5,"rewards_L":[61,68,48,43,49],"rewards_R":[87,60,75,67,58],"key_presses":["arrowright","arrowleft","arrowright","arrowleft","arrowright"],"response_times":[370,316,353,361,299],"outcomes":[87,68,75,43,58],"screen_resolution":1,"trial_type":"horizons-trial","trial_index":212,"time_elapsed":1132283,"internal_node_id":"0.0-213.0"},{"horizon":5,"rewards_L":[20,14,0,12,27],"rewards_R":[49,30,52,46,40],"key_presses":["arrowright","arrowleft","arrowleft","arrowright","arrowright"],"response_times":[382,361,534,277,286],"outcomes":[49,14,0,46,40],"screen_resolution":1,"trial_type":"horizons-trial","trial_index":213,"time_elapsed":1135006,"internal_node_id":"0.0-214.0"},{"horizon":5,"rewards_L":[65,75,58,74,75],"rewards_R":[52,52,54,72,48],"key_presses":["arrowright","arrowleft","arrowright","arrowright","arrowleft"],"response_times":[362,373,528,557,266],"outcomes":[52,75,54,72,75],"screen_resolution":1,"trial_type":"horizons-trial","trial_index":214,"time_elapsed":1138290,"internal_node_id":"0.0-215.0"},{"horizon":10,"rewards_L":[35,40,39,49,45,32,27,43,43,36],"rewards_R":[31,36,40,48,40,53,46,44,42,61],"key_presses":["arrowleft","arrowright","arrowright","arrowleft","arrowright","arrowleft","arrowright","arrowleft","arrowright","arrowright"],"response_times":[405,378,598,409,374,456,498,431,395,1284],"outcomes":[35,36,40,49,40,32,46,43,42,61],"screen_resolution":1,"trial_type":"horizons-trial","trial_index":215,"time_elapsed":1144366,"internal_node_id":"0.0-216.0"},{"horizon":5,"rewards_L":[67,61,66,68,61],"rewards_R":[52,43,46,61,49],"key_presses":["arrowleft","arrowright","arrowleft","arrowright","arrowleft"],"response_times":[397,358,380,344,272],"outcomes":[67,43,66,61,61],"screen_resolution":1,"trial_type":"horizons-trial","trial_index":216,"time_elapsed":1149721,"internal_node_id":"0.0-217.0"},{"horizon":5,"rewards_L":[56,43,39,35,42],"rewards_R":[67,78,54,58,62],"key_presses":["arrowright","arrowright","arrowleft","arrowleft","arrowright"],"response_times":[343,627,347,711,330],"outcomes":[67,78,39,35,62],"screen_resolution":1,"trial_type":"horizons-trial","trial_index":217,"time_elapsed":1154825,"internal_node_id":"0.0-218.0"},{"horizon":5,"rewards_L":[49,52,40,37,58],"rewards_R":[47,41,34,40,45],"key_presses":["arrowright","arrowleft","arrowright","arrowright","arrowleft"],"response_times":[473,364,404,393,272],"outcomes":[47,52,34,40,58],"screen_resolution":1,"trial_type":"horizons-trial","trial_index":218,"time_elapsed":1159231,"internal_node_id":"0.0-219.0"},{"horizon":10,"rewards_L":[54,48,62,64,73,46,70,63,58,63],"rewards_R":[74,70,70,74,55,63,78,61,59,54],"key_presses":["arrowright","arrowright","arrowleft","arrowright","arrowleft","arrowright","arrowright","arrowright","arrowright","arrowright"],"response_times":[365,409,397,341,465,257,420,344,187,202],"outcomes":[74,70,62,74,73,63,78,61,59,54],"screen_resolution":1,"trial_type":"horizons-trial","trial_index":219,"time_elapsed":1165590,"internal_node_id":"0.0-220.0"},{"horizon":5,"rewards_L":[63,72,63,64,56],"rewards_R":[55,59,65,73,52],"key_presses":["arrowleft","arrowright","arrowleft","arrowright","arrowleft"],"response_times":[599,369,395,453,246],"outcomes":[63,59,63,73,56],"screen_resolution":1,"trial_type":"horizons-trial","trial_index":220,"time_elapsed":1170018,"internal_node_id":"0.0-221.0"},{"horizon":10,"rewards_L":[96,88,81,93,89,97,100,97,89,95],"rewards_R":[51,56,78,49,58,48,64,58,51,57],"key_presses":["arrowleft","arrowleft","arrowright","arrowleft","arrowleft","arrowleft","arrowleft","arrowleft","arrowleft","arrowleft"],"response_times":[435,495,350,375,461,199,193,207,188,241],"outcomes":[96,88,78,93,89,97,100,97,89,95],"screen_resolution":1,"trial_type":"horizons-trial","trial_index":221,"time_elapsed":1173962,"internal_node_id":"0.0-222.0"},{"horizon":5,"rewards_L":[43,54,51,74,55],"rewards_R":[79,84,79,72,67],"key_presses":["arrowleft","arrowright","arrowleft","arrowleft","arrowright"],"response_times":[461,366,330,535,307],"outcomes":[43,84,51,74,67],"screen_resolution":1,"trial_type":"horizons-trial","trial_index":222,"time_elapsed":1178243,"internal_node_id":"0.0-223.0"},{"horizon":5,"rewards_L":[48,65,70,64,47],"rewards_R":[66,59,61,63,63],"key_presses":["arrowright","arrowleft","arrowright","arrowleft","arrowright"],"response_times":[427,363,378,353,447],"outcomes":[66,65,61,64,63],"screen_resolution":1,"trial_type":"horizons-trial","trial_index":223,"time_elapsed":1181441,"internal_node_id":"0.0-224.0"},{"horizon":10,"rewards_L":[62,59,51,52,56,69,75,59,61,73],"rewards_R":[62,65,58,51,80,65,54,62,53,60],"key_presses":["arrowleft","arrowright","arrowright","arrowleft","arrowright","arrowleft","arrowright","arrowright","arrowright","arrowright"],"response_times":[448,341,529,411,666,417,347,277,232,338],"outcomes":[62,65,58,52,80,69,54,62,53,60],"screen_resolution":1,"trial_type":"horizons-trial","trial_index":224,"time_elapsed":1188208,"internal_node_id":"0.0-225.0"},{"horizon":10,"rewards_L":[34,42,57,58,40,43,47,39,56,41],"rewards_R":[59,56,67,56,49,43,52,50,52,53],"key_presses":["arrowright","arrowright","arrowleft","arrowleft","arrowright","arrowleft","arrowright","arrowleft","arrowright","arrowright"],"response_times":[515,789,305,411,319,428,523,400,369,224],"outcomes":[59,56,57,58,49,43,52,39,52,53],"screen_resolution":1,"trial_type":"horizons-trial","trial_index":225,"time_elapsed":1193056,"internal_node_id":"0.0-226.0"},{"horizon":10,"rewards_L":[45,42,42,37,51,41,39,33,48,43],"rewards_R":[20,25,8,6,22,19,27,15,14,6],"key_presses":["arrowright","arrowleft","arrowleft","arrowright","arrowleft","arrowleft","arrowleft","arrowleft","arrowleft","arrowleft"],"response_times":[337,300,719,350,361,285,176,162,166,165],"outcomes":[20,42,42,6,51,41,39,33,48,43],"screen_resolution":1,"trial_type":"horizons-trial","trial_index":226,"time_elapsed":1196679,"internal_node_id":"0.0-227.0"},{"horizon":5,"rewards_L":[59,65,61,55,60],"rewards_R":[33,48,40,42,34],"key_presses":["arrowleft","arrowleft","arrowleft","arrowright","arrowleft"],"response_times":[354,557,415,363,422],"outcomes":[59,65,61,42,60],"screen_resolution":1,"trial_type":"horizons-trial","trial_index":227,"time_elapsed":1199689,"internal_node_id":"0.0-228.0"},{"horizon":10,"rewards_L":[49,38,55,52,47,40,47,44,52,57],"rewards_R":[58,66,59,38,68,64,66,56,52,55],"key_presses":["arrowright","arrowright","arrowright","arrowleft","arrowright","arrowright","arrowright","arrowright","arrowright","arrowright"],"response_times":[402,411,436,426,668,798,293,196,190,361],"outcomes":[58,66,59,52,68,64,66,56,52,55],"screen_resolution":1,"trial_type":"horizons-trial","trial_index":228,"time_elapsed":1204405,"internal_node_id":"0.0-229.0"},{"horizon":5,"rewards_L":[45,35,55,50,49],"rewards_R":[51,51,61,78,57],"key_presses":["arrowright","arrowleft","arrowleft","arrowright","arrowright"],"response_times":[433,378,472,305,297],"outcomes":[51,35,55,78,57],"screen_resolution":1,"trial_type":"horizons-trial","trial_index":229,"time_elapsed":1207748,"internal_node_id":"0.0-230.0"},{"horizon":10,"rewards_L":[50,27,50,37,43,55,38,49,27,55],"rewards_R":[61,72,74,79,75,90,64,73,66,64],"key_presses":["arrowleft","arrowright","arrowright","arrowleft","arrowright","arrowright","arrowright","arrowright","arrowright","arrowright"],"response_times":[422,338,428,426,330,308,210,187,212,316],"outcomes":[50,72,74,37,75,90,64,73,66,64],"screen_resolution":1,"trial_type":"horizons-trial","trial_index":230,"time_elapsed":1211682,"internal_node_id":"0.0-231.0"},{"horizon":5,"rewards_L":[61,53,53,61,66],"rewards_R":[99,92,98,87,87],"key_presses":["arrowright","arrowleft","arrowright","arrowleft","arrowright"],"response_times":[398,279,389,588,335],"outcomes":[99,53,98,61,87],"screen_resolution":1,"trial_type":"horizons-trial","trial_index":231,"time_elapsed":1214945,"internal_node_id":"0.0-232.0"},{"horizon":10,"rewards_L":[27,29,47,24,29,34,28,30,29,16],"rewards_R":[45,31,38,40,38,33,42,38,49,30],"key_presses":["arrowright","arrowright","arrowleft","arrowleft","arrowright","arrowright","arrowleft","arrowright","arrowright","arrowright"],"response_times":[463,492,487,498,369,1522,632,461,182,196],"outcomes":[45,31,47,24,38,33,28,38,49,30],"screen_resolution":1,"trial_type":"horizons-trial","trial_index":232,"time_elapsed":1221162,"internal_node_id":"0.0-233.0"},{"horizon":5,"rewards_L":[26,48,41,38,30],"rewards_R":[0,8,10,0,15],"key_presses":["arrowleft","arrowright","arrowright","arrowleft","arrowleft"],"response_times":[469,406,704,303,285],"outcomes":[26,8,10,38,30],"screen_resolution":1,"trial_type":"horizons-trial","trial_index":233,"time_elapsed":1224955,"internal_node_id":"0.0-234.0"},{"horizon":5,"rewards_L":[40,39,26,28,31],"rewards_R":[69,69,63,62,67],"key_presses":["arrowleft","arrowright","arrowleft","arrowleft","arrowright"],"response_times":[481,386,447,579,314],"outcomes":[40,69,26,28,67],"screen_resolution":1,"trial_type":"horizons-trial","trial_index":234,"time_elapsed":1227994,"internal_node_id":"0.0-235.0"},{"horizon":10,"rewards_L":[63,63,65,56,59,43,64,50,51,63],"rewards_R":[49,50,54,39,50,58,46,45,41,61],"key_presses":["arrowright","arrowright","arrowleft","arrowleft","arrowleft","arrowleft","arrowleft","arrowleft","arrowleft","arrowleft"],"response_times":[455,363,412,461,781,478,369,294,227,254],"outcomes":[49,50,65,56,59,43,64,50,51,63],"screen_resolution":1,"trial_type":"horizons-trial","trial_index":235,"time_elapsed":1232662,"internal_node_id":"0.0-236.0"},{"horizon":10,"rewards_L":[51,54,64,51,51,67,54,61,60,53],"rewards_R":[44,37,46,42,47,38,17,40,30,35],"key_presses":["arrowleft","arrowright","arrowright","arrowright","arrowleft","arrowleft","arrowleft","arrowleft","arrowleft","arrowleft"],"response_times":[430,366,456,683,338,557,280,182,207,234],"outcomes":[51,37,46,42,51,67,54,61,60,53],"screen_resolution":1,"trial_type":"horizons-trial","trial_index":236,"time_elapsed":1237256,"internal_node_id":"0.0-237.0"},{"horizon":5,"rewards_L":[52,84,69,70,63],"rewards_R":[36,29,50,36,52],"key_presses":["arrowleft","arrowleft","arrowright","arrowleft","arrowleft"],"response_times":[360,465,403,394,322],"outcomes":[52,84,50,70,63],"screen_resolution":1,"trial_type":"horizons-trial","trial_index":237,"time_elapsed":1240924,"internal_node_id":"0.0-238.0"},{"horizon":10,"rewards_L":[84,70,89,71,75,75,92,88,64,74],"rewards_R":[56,36,61,47,61,55,47,75,71,75],"key_presses":["arrowright","arrowleft","arrowright","arrowright","arrowleft","arrowleft","arrowleft","arrowleft","arrowleft","arrowleft"],"response_times":[419,358,383,633,380,467,367,215,202,341],"outcomes":[56,70,61,47,75,75,92,88,64,74],"screen_resolution":1,"trial_type":"horizons-trial","trial_index":238,"time_elapsed":1245283,"internal_node_id":"0.0-239.0"},{"horizon":10,"rewards_L":[32,35,41,51,45,34,41,41,42,39],"rewards_R":[43,45,46,53,37,46,54,40,36,54],"key_presses":["arrowright","arrowright","arrowleft","arrowright","arrowleft","arrowright","arrowright","arrowright","arrowleft","arrowright"],"response_times":[505,392,389,422,389,372,322,333,406,506],"outcomes":[43,45,41,53,45,46,54,40,42,54],"screen_resolution":1,"trial_type":"horizons-trial","trial_index":239,"time_elapsed":1249825,"internal_node_id":"0.0-240.0"},{"horizon":5,"rewards_L":[56,45,46,64,64],"rewards_R":[50,34,45,60,28],"key_presses":["arrowleft","arrowleft","arrowright","arrowleft","arrowleft"],"response_times":[442,699,378,447,439],"outcomes":[56,45,45,64,64],"screen_resolution":1,"trial_type":"horizons-trial","trial_index":240,"time_elapsed":1269076,"internal_node_id":"0.0-241.0"},{"horizon":5,"rewards_L":[53,47,58,62,71],"rewards_R":[58,58,61,55,48],"key_presses":["arrowleft","arrowright","arrowleft","arrowright","arrowleft"],"response_times":[714,406,478,428,1458],"outcomes":[53,58,58,55,71],"screen_resolution":1,"trial_type":"horizons-trial","trial_index":241,"time_elapsed":1284329,"internal_node_id":"0.0-242.0"},{"horizon":5,"rewards_L":[21,49,44,43,41],"rewards_R":[44,62,57,70,64],"key_presses":["arrowright","arrowleft","arrowright","arrowleft","arrowright"],"response_times":[463,384,405,428,378],"outcomes":[44,49,57,43,64],"screen_resolution":1,"trial_type":"horizons-trial","trial_index":242,"time_elapsed":1291142,"internal_node_id":"0.0-243.0"},{"horizon":5,"rewards_L":[74,75,80,75,68],"rewards_R":[55,57,66,63,54],"key_presses":["arrowright","arrowleft","arrowright","arrowright","arrowleft"],"response_times":[390,364,369,773,430],"outcomes":[55,75,66,63,68],"screen_resolution":1,"trial_type":"horizons-trial","trial_index":243,"time_elapsed":1295105,"internal_node_id":"0.0-244.0"},{"horizon":5,"rewards_L":[35,35,38,24,33],"rewards_R":[12,31,28,41,10],"key_presses":["arrowleft","arrowright","arrowright","arrowright","arrowleft"],"response_times":[419,358,422,620,351],"outcomes":[35,31,28,41,33],"screen_resolution":1,"trial_type":"horizons-trial","trial_index":244,"time_elapsed":1298017,"internal_node_id":"0.0-245.0"},{"horizon":5,"rewards_L":[60,59,64,61,52],"rewards_R":[28,23,34,26,46],"key_presses":["arrowleft","arrowleft","arrowleft","arrowright","arrowleft"],"response_times":[377,397,2025,411,426],"outcomes":[60,59,64,26,52],"screen_resolution":1,"trial_type":"horizons-trial","trial_index":245,"time_elapsed":1319635,"internal_node_id":"0.0-246.0"},{"horizon":10,"rewards_L":[33,39,48,31,44,32,26,35,40,49],"rewards_R":[53,54,46,53,53,71,72,46,57,58],"key_presses":["arrowleft","arrowleft","arrowright","arrowright","arrowleft","arrowright","arrowright","arrowright","arrowright","arrowright"],"response_times":[481,917,361,424,397,336,319,212,162,316],"outcomes":[33,39,46,53,44,71,72,46,57,58],"screen_resolution":1,"trial_type":"horizons-trial","trial_index":246,"time_elapsed":1324812,"internal_node_id":"0.0-247.0"},{"horizon":5,"rewards_L":[38,57,46,50,65],"rewards_R":[73,83,79,74,77],"key_presses":["arrowleft","arrowright","arrowright","arrowleft","arrowright"],"response_times":[399,355,411,663,291],"outcomes":[38,83,79,50,77],"screen_resolution":1,"trial_type":"horizons-trial","trial_index":247,"time_elapsed":1329394,"in