[{"success":true,"timeout":false,"failed_images":[],"failed_audio":[],"failed_video":[],"trial_type":"preload","trial_index":0,"time_elapsed":19,"internal_node_id":"0.0-0.0"},{"success":true,"trial_type":"fullscreen","trial_index":1,"time_elapsed":1844,"internal_node_id":"0.0-1.0"},{"rt":1764,"stimulus":"<p>你将开始实验 実験を開始します<b>Horizons task.</b></p><p>查看说明请按 “1” 键，跳过说明请按 “2” 键。説明を見るには “1” キーを押してください。スキップするには “2” キーを押してください。</p>","response":"1","trial_type":"html-keyboard-response","trial_index":2,"time_elapsed":3609,"internal_node_id":"0.0-2.0"},{"view_history":[{"page_index":0,"viewing_time":3612},{"page_index":1,"viewing_time":7916},{"page_index":2,"viewing_time":6464},{"page_index":3,"viewing_time":1648},{"page_index":4,"viewing_time":1097},{"page_index":5,"viewing_time":1566},{"page_index":6,"viewing_time":3146},{"page_index":7,"viewing_time":5551},{"page_index":8,"viewing_time":5293},{"page_index":9,"viewing_time":5192}],"rt":41485,"trial_type":"instructions","trial_index":3,"time_elapsed":45095,"internal_node_id":"0.0-3.0-0.0"},{"horizon":5,"rewards_L":[44,57,74,72,62],"rewards_R":[31,33,24,39,29],"key_presses":["arrowright","arrowleft","arrowright","arrowright","arrowleft"],"response_times":[1180,876,441,659,2027],"outcomes":[31,57,24,39,62],"screen_resolution":1,"phase":"practice","trial_type":"horizons-trial","trial_index":4,"time_elapsed":53060,"internal_node_id":"0.0-3.0-1.0"},{"horizon":10,"rewards_L":[64,50,57,35,52,38,44,61,39,38],"rewards_R":[70,69,76,71,75,58,81,84,57,61],"key_presses":["arrowleft","arrowleft","arrowright","arrowright","arrowleft","arrowright","arrowleft","arrowright","arrowright","arrowleft"],"response_times":[771,541,381,607,1598,514,468,546,882,345],"outcomes":[64,50,76,71,52,58,44,84,57,38],"screen_resolution":1,"phase":"practice","trial_type":"horizons-trial","trial_index":5,"time_elapsed":60433,"internal_node_id":"0.0-3.0-2.0"},{"view_history":[{"page_index":0,"viewing_time":1354},{"page_index":1,"viewing_time":1954},{"page_index":2,"viewing_time":1526},{"page_index":3,"viewing_time":1077}],"rt":5910,"trial_type":"instructions","trial_index":6,"time_elapsed":66343,"internal_node_id":"0.0-3.0-3.0"},{"responses":["true","false","true"],"num_errors":0,"rt":22920.900000095367,"trial_type":"horizons-comprehension","trial_index":7,"time_elapsed":89266,"internal_node_id":"0.0-3.0-4.0"},{"view_history":[{"page_index":0,"viewing_time":1261},{"page_index":1,"viewing_time":1922}],"rt":3184,"trial_type":"instructions","trial_index":8,"time_elapsed":92450,"internal_node_id":"0.0-4.0"},{"horizon":5,"rewards_L":[62,53,41,54,57],"rewards_R":[44,45,51,40,42],"key_presses":["arrowright","arrowright","arrowleft","arrowleft","arrowright"],"response_times":[552,365,491,447,315],"outcomes":[44,45,41,54,42],"screen_resolution":1,"trial_type":"horizons-trial","trial_index":9,"time_elapsed":96189,"internal_node_id":"0.0-5.0"},{"horizon":5,"rewards_L":[20,39,38,42,30],"rewards_R":[52,41,43,48,48],"key_presses":["arrowright","arrowleft","arrowleft","arrowright","arrowleft"],"response_times":[535,396,338,398,712],"outcomes":[52,39,38,48,30],"screen_resolution":1,"trial_type":"horizons-trial","trial_index":10,"time_elapsed":99316,"internal_node_id":"0.0-6.0"},{"horizon":5,"rewards_L":[24,26,40,26,23],"rewards_R":[35,45,70,36,43],"key_presses":["arrowleft","arrowright","arrowright","arrowleft","arrowright"],"response_times":[640,336,320,341,386],"outcomes":[24,45,70,26,43],"screen_resolution":1,"trial_type":"horizons-trial","trial_index":11,"time_elapsed":101935,"internal_node_id":"0.0-7.0"},{"horizon":10,"rewards_L":[23,39,46,36,28,44,44,32,38,30],"rewards_R":[39,51,55,37,37,31,32,39,36,49],"key_presses":["arrowright","arrowleft","arrowleft","arrowright","arrowleft","arrowright","arrowleft","arrowright","arrowleft","arrowright"],"response_times":[520,412,300,396,856,842,591,467,712,395],"outcomes":[39,39,46,37,28,31,44,39,38,49],"screen_resolution":1,"trial_type":"horizons-trial","trial_index":12,"time_elapsed":108459,"internal_node_id":"0.0-8.0"},{"horizon":5,"rewards_L":[22,28,28,29,42],"rewards_R":[39,44,41,39,31],"key_presses":["arrowright","arrowright","arrowright","arrowleft","arrowright"],"response_times":[556,555,622,366,1122],"outcomes":[39,44,41,29,31],"screen_resolution":1,"trial_type":"horizons-trial","trial_index":13,"time_elapsed":112312,"internal_node_id":"0.0-9.0"},{"horizon":10,"rewards_L":[63,65,53,63,70,55,79,83,67,71],"rewards_R":[70,53,58,62,69,70,60,67,71,55],"key_presses":["arrowright","arrowleft","arrowright","arrowleft","arrowleft","arrowright","arrowright","arrowleft","arrowright","arrowright"],"response_times":[505,380,340,376,656,230,571,431,236,393],"outcomes":[70,65,58,63,70,70,60,83,71,55],"screen_resolution":1,"trial_type":"horizons-trial","trial_index":14,"time_elapsed":118985,"internal_node_id":"0.0-10.0"},{"horizon":10,"rewards_L":[56,60,54,54,42,53,43,51,46,36],"rewards_R":[54,40,44,28,28,48,32,39,42,39],"key_presses":["arrowright","arrowleft","arrowright","arrowright","arrowleft","arrowright","arrowright","arrowright","arrowleft","arrowright"],"response_times":[518,287,488,383,517,205,456,541,411,415],"outcomes":[54,60,44,28,42,48,32,39,46,39],"screen_resolution":1,"trial_type":"horizons-trial","trial_index":15,"time_elapsed":125358,"internal_node_id":"0.0-11.0"},{"horizon":10,"rewards_L":[49,59,36,68,53,63,62,44,61,45],"rewards_R":[48,50,34,34,40,44,26,36,36,35],"key_presses":["arrowleft","arrowleft","arrowleft","arrowright","arrowleft","arrowright","arrowright","arrowright","arrowleft","arrowright"],"response_times":[740,375,321,377,284,421,300,421,317,425],"outcomes":[49,59,36,34,53,44,26,36,61,35],"screen_resolution":1,"trial_type":"horizons-trial","trial_index":16,"time_elapsed":130281,"internal_node_id":"0.0-12.0"},{"horizon":10,"rewards_L":[49,28,40,37,55,60,39,44,34,37],"rewards_R":[39,42,48,34,41,42,40,51,54,41],"key_presses":["arrowright","arrowleft","arrowright","arrowright","arrowleft","arrowright","arrowright","arrowright","arrowright","arrowleft"],"response_times":[444,323,561,310,521,425,311,326,381,601],"outcomes":[39,28,48,34,55,42,40,51,54,37],"screen_resolution":1,"trial_type":"horizons-trial","trial_index":17,"time_elapsed":135326,"internal_node_id":"0.0-13.0"},{"horizon":10,"rewards_L":[62,53,78,77,57,81,61,65,65,75],"rewards_R":[38,38,45,48,35,36,46,58,46,35],"key_presses":["arrowleft","arrowleft","arrowright","arrowright","arrowleft","arrowright","arrowright","arrowright","arrowleft","arrowleft"],"response_times":[520,566,425,315,413,250,341,256,295,396],"outcomes":[62,53,45,48,57,36,46,58,65,75],"screen_resolution":1,"trial_type":"horizons-trial","trial_index":18,"time_elapsed":139719,"internal_node_id":"0.0-14.0"},{"horizon":5,"rewards_L":[63,64,84,70,59],"rewards_R":[43,55,37,51,43],"key_presses":["arrowright","arrowleft","arrowleft","arrowright","arrowright"],"response_times":[506,340,375,351,344],"outcomes":[43,64,84,51,43],"screen_resolution":1,"trial_type":"horizons-trial","trial_index":19,"time_elapsed":143186,"internal_node_id":"0.0-15.0"},{"horizon":10,"rewards_L":[38,42,41,27,35,36,38,38,40,46],"rewards_R":[38,47,40,62,56,47,50,39,45,44],"key_presses":["arrowleft","arrowright","arrowleft","arrowleft","arrowright","arrowleft","arrowright","arrowleft","arrowright","arrowleft"],"response_times":[771,381,220,516,285,517,331,271,315,316],"outcomes":[38,47,41,27,56,36,50,38,45,46],"screen_resolution":1,"trial_type":"horizons-trial","trial_index":20,"time_elapsed":148683,"internal_node_id":"0.0-16.0"},{"horizon":10,"rewards_L":[35,48,42,50,35,26,37,28,13,33],"rewards_R":[35,51,51,49,52,34,44,31,49,53],"key_presses":["arrowleft","arrowright","arrowright","arrowleft","arrowright","arrowright","arrowleft","arrowleft","arrowright","arrowright"],"response_times":[474,281,471,306,270,315,281,391,270,166],"outcomes":[35,51,51,50,52,34,37,28,49,53],"screen_resolution":1,"trial_type":"horizons-trial","trial_index":21,"time_elapsed":154794,"internal_node_id":"0.0-17.0"},{"horizon":10,"rewards_L":[53,37,41,45,28,35,16,38,46,25],"rewards_R":[50,63,47,62,59,55,62,54,62,56],"key_presses":["arrowright","arrowleft","arrowleft","arrowleft","arrowright","arrowleft","arrowleft","arrowleft","arrowleft","arrowright"],"response_times":[1715,469,485,260,651,537,396,240,240,311],"outcomes":[50,37,41,45,59,35,16,38,46,56],"screen_resolution":1,"trial_type":"horizons-trial","trial_index":22,"time_elapsed":160950,"internal_node_id":"0.0-18.0"},{"horizon":10,"rewards_L":[58,21,36,25,36,32,36,46,49,31],"rewards_R":[40,46,51,47,34,34,57,54,36,54],"key_presses":["arrowleft","arrowright","arrowleft","arrowright","arrowleft","arrowleft","arrowleft","arrowright","arrowleft","arrowleft"],"response_times":[555,355,257,264,260,366,285,226,285,246],"outcomes":[58,46,36,47,36,32,36,54,49,31],"screen_resolution":1,"trial_type":"horizons-trial","trial_index":23,"time_elapsed":165208,"internal_node_id":"0.0-19.0"},{"horizon":10,"rewards_L":[56,53,60,65,55,67,59,74,41,49],"rewards_R":[67,63,72,51,54,75,67,57,63,60],"key_presses":["arrowright","arrowright","arrowright","arrowleft","arrowleft","arrowleft","arrowright","arrowright","arrowright","arrowleft"],"response_times":[584,433,265,304,323,250,415,371,240,246],"outcomes":[67,63,72,65,55,67,67,57,63,49],"screen_resolution":1,"trial_type":"horizons-trial","trial_index":24,"time_elapsed":171277,"internal_node_id":"0.0-20.0"},{"horizon":10,"rewards_L":[42,64,65,49,41,45,49,49,44,49],"rewards_R":[37,51,30,45,36,34,44,43,39,32],"key_presses":["arrowleft","arrowleft","arrowright","arrowright","arrowleft","arrowright","arrowright","arrowright","arrowright","arrowleft"],"response_times":[548,345,430,421,396,255,231,225,290,252],"outcomes":[42,64,30,45,41,34,44,43,39,49],"screen_resolution":1,"trial_type":"horizons-trial","trial_index":25,"time_elapsed":176805,"internal_node_id":"0.0-21.0"},{"horizon":10,"rewards_L":[63,73,62,54,65,62,70,60,66,75],"rewards_R":[33,37,25,18,27,42,28,20,41,40],"key_presses":["arrowleft","arrowleft","arrowleft","arrowright","arrowleft","arrowleft","arrowleft","arrowright","arrowleft","arrowleft"],"response_times":[441,345,267,394,370,221,216,260,375,216],"outcomes":[63,73,62,18,65,62,70,20,66,75],"screen_resolution":1,"trial_type":"horizons-trial","trial_index":26,"time_elapsed":181784,"internal_node_id":"0.0-22.0"},{"horizon":10,"rewards_L":[46,40,36,42,35,30,39,48,53,58],"rewards_R":[38,49,41,44,46,46,51,47,28,22],"key_presses":["arrowright","arrowleft","arrowright","arrowleft","arrowright","arrowleft","arrowright","arrowright","arrowleft","arrowleft"],"response_times":[395,326,596,226,225,310,60,316,140,245],"outcomes":[38,40,41,42,46,30,51,47,53,58],"screen_resolution":1,"trial_type":"horizons-trial","trial_index":27,"time_elapsed":187930,"internal_node_id":"0.0-23.0"},{"horizon":5,"rewards_L":[27,40,39,33,48],"rewards_R":[55,52,64,53,69],"key_presses":["arrowright","arrowright","arrowright","arrowleft","arrowleft"],"response_times":[590,350,306,356,541],"outcomes":[55,52,64,33,48],"screen_resolution":1,"trial_type":"horizons-trial","trial_index":28,"time_elapsed":190850,"internal_node_id":"0.0-24.0"},{"horizon":10,"rewards_L":[55,64,52,56,56,68,47,60,61,67],"rewards_R":[74,66,74,76,67,73,73,77,73,72],"key_presses":["arrowright","arrowright","arrowleft","arrowright","arrowright","arrowright","arrowleft","arrowleft","arrowright","arrowright"],"response_times":[795,429,368,371,263,55,623,456,340,576],"outcomes":[74,66,52,76,67,73,47,60,73,72],"screen_resolution":1,"trial_type":"horizons-trial","trial_index":29,"time_elapsed":197217,"internal_node_id":"0.0-25.0"},{"horizon":5,"rewards_L":[21,22,13,26,15],"rewards_R":[46,42,32,29,46],"key_presses":["arrowright","arrowright","arrowright","arrowleft","arrowright"],"response_times":[563,403,561,275,681],"outcomes":[46,42,32,26,46],"screen_resolution":1,"trial_type":"horizons-trial","trial_index":30,"time_elapsed":200663,"internal_node_id":"0.0-26.0"},{"horizon":10,"rewards_L":[51,57,43,50,39,53,51,56,36,46],"rewards_R":[43,39,36,37,32,34,53,37,42,58],"key_presses":["arrowleft","arrowleft","arrowright","arrowleft","arrowleft","arrowleft","arrowright","arrowright","arrowright","arrowleft"],"response_times":[676,355,361,391,288,309,330,451,461,291],"outcomes":[51,57,36,50,39,53,53,37,42,46],"screen_resolution":1,"trial_type":"horizons-trial","trial_index":31,"time_elapsed":205226,"internal_node_id":"0.0-27.0"},{"horizon":5,"rewards_L":[50,46,44,44,25],"rewards_R":[50,53,56,58,72],"key_presses":["arrowright","arrowright","arrowleft","arrowleft","arrowright"],"response_times":[538,413,345,377,264],"outcomes":[50,53,44,44,72],"screen_resolution":1,"trial_type":"horizons-trial","trial_index":32,"time_elapsed":207781,"internal_node_id":"0.0-28.0"},{"horizon":5,"rewards_L":[36,33,48,55,46],"rewards_R":[15,2,15,6,23],"key_presses":["arrowright","arrowleft","arrowleft","arrowright","arrowleft"],"response_times":[360,421,684,403,341],"outcomes":[15,33,48,6,46],"screen_resolution":1,"trial_type":"horizons-trial","trial_index":33,"time_elapsed":210811,"internal_node_id":"0.0-29.0"},{"horizon":10,"rewards_L":[11,24,31,25,13,19,22,43,7,26],"rewards_R":[41,40,59,33,40,38,59,34,32,52],"key_presses":["arrowleft","arrowright","arrowright","arrowleft","arrowright","arrowleft","arrowleft","arrowleft","arrowright","arrowright"],"response_times":[576,325,532,315,405,240,411,477,370,533],"outcomes":[11,40,59,25,40,19,22,43,32,52],"screen_resolution":1,"trial_type":"horizons-trial","trial_index":34,"time_elapsed":216961,"internal_node_id":"0.0-30.0"},{"horizon":10,"rewards_L":[39,18,24,33,38,17,24,46,39,43],"rewards_R":[35,44,43,49,27,46,44,45,36,40],"key_presses":["arrowright","arrowright","arrowright","arrowleft","arrowright","arrowright","arrowright","arrowleft","arrowright","arrowright"],"response_times":[387,335,226,395,381,226,195,359,338,215],"outcomes":[35,44,43,33,27,46,44,46,36,40],"screen_resolution":1,"trial_type":"horizons-trial","trial_index":35,"time_elapsed":220538,"internal_node_id":"0.0-31.0"},{"horizon":5,"rewards_L":[64,63,55,43,54],"rewards_R":[49,56,55,62,67],"key_presses":["arrowright","arrowright","arrowleft","arrowleft","arrowright"],"response_times":[466,416,500,496,741],"outcomes":[49,56,55,43,67],"screen_resolution":1,"trial_type":"horizons-trial","trial_index":36,"time_elapsed":223740,"internal_node_id":"0.0-32.0"},{"horizon":10,"rewards_L":[30,36,39,39,36,43,50,36,34,33],"rewards_R":[46,36,48,31,29,39,27,43,29,32],"key_presses":["arrowleft","arrowright","arrowright","arrowleft","arrowleft","arrowright","arrowright","arrowright","arrowright","arrowleft"],"response_times":[405,467,310,561,254,261,426,265,214,242],"outcomes":[30,36,48,39,36,39,27,43,29,33],"screen_resolution":1,"trial_type":"horizons-trial","trial_index":37,"time_elapsed":227857,"internal_node_id":"0.0-33.0"},{"horizon":5,"rewards_L":[43,42,38,31,39],"rewards_R":[12,28,20,18,9],"key_presses":["arrowleft","arrowright","arrowleft","arrowright","arrowleft"],"response_times":[661,305,617,301,464],"outcomes":[43,28,38,18,39],"screen_resolution":1,"trial_type":"horizons-trial","trial_index":38,"time_elapsed":230963,"internal_node_id":"0.0-34.0"},{"horizon":5,"rewards_L":[37,37,48,44,61],"rewards_R":[31,35,28,34,36],"key_presses":["arrowright","arrowleft","arrowleft","arrowright","arrowleft"],"response_times":[570,261,385,390,320],"outcomes":[31,37,48,34,61],"screen_resolution":1,"trial_type":"horizons-trial","trial_index":39,"time_elapsed":233457,"internal_node_id":"0.0-35.0"},{"horizon":10,"rewards_L":[45,55,47,43,38,36,28,38,44,34],"rewards_R":[66,64,60,38,74,76,60,66,48,57],"key_presses":["arrowright","arrowright","arrowright","arrowleft","arrowright","arrowright","arrowright","arrowleft","arrowleft","arrowright"],"response_times":[495,338,303,351,356,365,236,253,523,266],"outcomes":[66,64,60,43,74,76,60,38,44,57],"screen_resolution":1,"trial_type":"horizons-trial","trial_index":40,"time_elapsed":237504,"internal_node_id":"0.0-36.0"},{"horizon":10,"rewards_L":[27,39,43,32,20,43,32,44,35,32],"rewards_R":[10,9,9,12,0,4,1,2,17,9],"key_presses":["arrowright","arrowleft","arrowright","arrowleft","arrowright","arrowright","arrowleft","arrowright","arrowleft","arrowleft"],"response_times":[440,325,306,431,215,246,311,204,77,255],"outcomes":[10,39,9,32,0,4,32,2,35,32],"screen_resolution":1,"trial_type":"horizons-trial","trial_index":41,"time_elapsed":242704,"internal_node_id":"0.0-37.0"},{"horizon":10,"rewards_L":[40,34,45,43,49,53,38,50,32,42],"rewards_R":[28,36,33,42,24,36,43,9,23,30],"key_presses":["arrowright","arrowleft","arrowright","arrowleft","arrowright","arrowleft","arrowright","arrowright","arrowright","arrowleft"],"response_times":[495,316,371,290,255,281,250,270,306,400],"outcomes":[28,34,33,43,24,53,43,9,23,42],"screen_resolution":1,"trial_type":"horizons-trial","trial_index":42,"time_elapsed":246845,"internal_node_id":"0.0-38.0"},{"horizon":10,"rewards_L":[39,46,41,36,35,37,41,30,49,39],"rewards_R":[51,44,40,32,37,37,44,53,34,51],"key_presses":["arrowright","arrowleft","arrowleft","arrowleft","arrowright","arrowright","arrowright","arrowright","arrowright","arrowright"],"response_times":[466,411,471,395,627,384,281,291,606,645],"outcomes":[51,46,41,36,37,37,44,53,34,51],"screen_resolution":1,"trial_type":"horizons-trial","trial_index":43,"time_elapsed":252241,"internal_node_id":"0.0-39.0"},{"horizon":10,"rewards_L":[37,33,44,41,58,49,39,45,50,34],"rewards_R":[25,34,37,40,38,40,36,49,34,36],"key_presses":["arrowleft","arrowright","arrowright","arrowright","arrowleft","arrowright","arrowright","arrowright","arrowleft","arrowleft"],"response_times":[700,485,316,295,311,280,240,267,290,310],"outcomes":[37,34,37,40,58,40,36,49,50,34],"screen_resolution":1,"trial_type":"horizons-trial","trial_index":44,"time_elapsed":256629,"internal_node_id":"0.0-40.0"},{"horizon":5,"rewards_L":[79,80,86,90,87],"rewards_R":[52,75,55,61,59],"key_presses":["arrowleft","arrowright","arrowleft","arrowright","arrowleft"],"response_times":[500,285,351,390,437],"outcomes":[79,75,86,61,87],"screen_resolution":1,"trial_type":"horizons-trial","trial_index":45,"time_elapsed":259869,"internal_node_id":"0.0-41.0"},{"horizon":10,"rewards_L":[46,45,40,44,44,33,38,34,51,34],"rewards_R":[48,56,52,58,61,49,59,59,42,49],"key_presses":["arrowright","arrowleft","arrowright","arrowleft","arrowright","arrowright","arrowright","arrowleft","arrowleft","arrowright"],"response_times":[400,301,386,255,301,286,250,210,409,300],"outcomes":[48,45,52,44,61,49,59,34,51,49],"screen_resolution":1,"trial_type":"horizons-trial","trial_index":46,"time_elapsed":263765,"internal_node_id":"0.0-42.0"},{"horizon":10,"rewards_L":[70,85,84,83,69,79,91,77,83,93],"rewards_R":[54,73,61,58,63,60,66,57,56,66],"key_presses":["arrowleft","arrowright","arrowright","arrowleft","arrowright","arrowright","arrowright","arrowleft","arrowleft","arrowleft"],"response_times":[560,306,260,511,411,421,245,371,336,230],"outcomes":[70,73,61,83,63,60,66,77,83,93],"screen_resolution":1,"trial_type":"horizons-trial","trial_index":47,"time_elapsed":269045,"internal_node_id":"0.0-43.0"},{"horizon":5,"rewards_L":[57,60,61,80,48],"rewards_R":[57,65,57,75,60],"key_presses":["arrowleft","arrowright","arrowright","arrowleft","arrowright"],"response_times":[626,275,276,411,300],"outcomes":[57,65,57,80,60],"screen_resolution":1,"trial_type":"horizons-trial","trial_index":48,"time_elapsed":272859,"internal_node_id":"0.0-44.0"},{"horizon":5,"rewards_L":[40,34,32,41,45],"rewards_R":[35,40,40,43,36],"key_presses":["arrowleft","arrowleft","arrowright","arrowleft","arrowright"],"response_times":[759,491,345,531,441],"outcomes":[40,34,40,41,36],"screen_resolution":1,"trial_type":"horizons-trial","trial_index":49,"time_elapsed":276077,"internal_node_id":"0.0-45.0"},{"horizon":5,"rewards_L":[56,55,52,35,47],"rewards_R":[27,36,24,36,48],"key_presses":["arrowright","arrowleft","arrowright","arrowleft","arrowright"],"response_times":[550,331,646,285,281],"outcomes":[27,55,24,35,48],"screen_resolution":1,"trial_type":"horizons-trial","trial_index":50,"time_elapsed":280685,"internal_node_id":"0.0-46.0"},{"horizon":10,"rewards_L":[66,54,63,64,61,51,65,50,63,63],"rewards_R":[79,69,74,86,71,86,67,72,77,73],"key_presses":["arrowright","arrowright","arrowleft","arrowright","arrowright","arrowleft","arrowleft","arrowright","arrowright","arrowleft"],"response_times":[610,481,351,420,396,358,578,296,345,381],"outcomes":[79,69,63,86,71,51,65,72,77,63],"screen_resolution":1,"trial_type":"horizons-trial","trial_index":51,"time_elapsed":285924,"internal_node_id":"0.0-47.0"},{"horizon":5,"rewards_L":[29,35,28,52,30],"rewards_R":[70,64,62,52,73],"key_presses":["arrowright","arrowleft","arrowleft","arrowleft","arrowright"],"response_times":[520,276,571,365,406],"outcomes":[70,35,28,52,73],"screen_resolution":1,"trial_type":"horizons-trial","trial_index":52,"time_elapsed":289952,"internal_node_id":"0.0-48.0"},{"horizon":10,"rewards_L":[34,40,33,19,24,30,27,28,32,35],"rewards_R":[43,44,36,38,52,53,45,39,31,26],"key_presses":["arrowright","arrowleft","arrowright","arrowleft","arrowleft","arrowleft","arrowright","arrowright","arrowright","arrowright"],"response_times":[445,571,430,501,271,245,340,321,331,557],"outcomes":[43,40,36,19,24,30,45,39,31,26],"screen_resolution":1,"trial_type":"horizons-trial","trial_index":53,"time_elapsed":294524,"internal_node_id":"0.0-49.0"},{"horizon":10,"rewards_L":[42,34,40,44,55,49,54,31,56,55],"rewards_R":[36,52,42,43,42,51,32,36,41,30],"key_presses":["arrowleft","arrowright","arrowleft","arrowright","arrowleft","arrowleft","arrowleft","arrowright","arrowright","arrowright"],"response_times":[485,330,791,807,556,333,487,351,226,275],"outcomes":[42,52,40,43,55,49,54,36,41,30],"screen_resolution":1,"trial_type":"horizons-trial","trial_index":54,"time_elapsed":301375,"internal_node_id":"0.0-50.0"},{"horizon":10,"rewards_L":[35,50,48,46,48,53,54,33,50,45],"rewards_R":[44,44,47,49,55,40,34,32,29,42],"key_presses":["arrowright","arrowright","arrowleft","arrowleft","arrowright","arrowleft","arrowleft","arrowright","arrowright","arrowleft"],"response_times":[395,317,450,599,508,300,226,481,240,315],"outcomes":[44,44,48,46,55,53,54,32,29,45],"screen_resolution":1,"trial_type":"horizons-trial","trial_index":55,"time_elapsed":307099,"internal_node_id":"0.0-51.0"},{"horizon":5,"rewards_L":[82,90,83,76,91],"rewards_R":[68,56,52,68,65],"key_presses":["arrowright","arrowleft","arrowleft","arrowright","arrowleft"],"response_times":[921,366,894,593,331],"outcomes":[68,90,83,68,91],"screen_resolution":1,"trial_type":"horizons-trial","trial_index":56,"time_elapsed":310783,"internal_node_id":"0.0-52.0"},{"horizon":5,"rewards_L":[71,68,63,45,48],"rewards_R":[59,45,72,69,55],"key_presses":["arrowright","arrowright","arrowleft","arrowleft","arrowright"],"response_times":[733,514,435,351,233],"outcomes":[59,45,63,45,55],"screen_resolution":1,"trial_type":"horizons-trial","trial_index":57,"time_elapsed":313659,"internal_node_id":"0.0-53.0"},{"horizon":5,"rewards_L":[49,46,32,36,29],"rewards_R":[75,71,59,84,60],"key_presses":["arrowleft","arrowright","arrowleft","arrowright","arrowright"],"response_times":[564,447,300,220,346],"outcomes":[49,71,32,84,60],"screen_resolution":1,"trial_type":"horizons-trial","trial_index":58,"time_elapsed":316691,"internal_node_id":"0.0-54.0"},{"horizon":5,"rewards_L":[59,67,67,60,50],"rewards_R":[36,61,39,30,45],"key_presses":["arrowleft","arrowright","arrowright","arrowright","arrowleft"],"response_times":[335,333,393,270,225],"outcomes":[59,61,39,30,50],"screen_resolution":1,"trial_type":"horizons-trial","trial_index":59,"time_elapsed":319159,"internal_node_id":"0.0-55.0"},{"horizon":10,"rewards_L":[75,67,63,55,51,62,41,55,52,57],"rewards_R":[37,38,48,26,37,12,54,46,31,26],"key_presses":["arrowleft","arrowright","arrowleft","arrowright","arrowright","arrowright","arrowleft","arrowright","arrowleft","arrowright"],"response_times":[638,528,280,154,166,461,205,143,109,213],"outcomes":[75,38,63,26,37,12,41,46,52,26],"screen_resolution":1,"trial_type":"horizons-trial","trial_index":60,"time_elapsed":323135,"internal_node_id":"0.0-56.0"},{"horizon":10,"rewards_L":[22,7,18,20,20,23,17,18,16,14],"rewards_R":[29,47,37,34,57,37,20,28,23,48],"key_presses":["arrowright","arrowleft","arrowleft","arrowleft","arrowright","arrowleft","arrowright","arrowleft","arrowright","arrowleft"],"response_times":[425,266,375,270,295,246,235,210,156,231],"outcomes":[29,7,18,20,57,23,20,18,23,14],"screen_resolution":1,"trial_type":"horizons-trial","trial_index":61,"time_elapsed":326921,"internal_node_id":"0.0-57.0"},{"horizon":5,"rewards_L":[63,55,55,51,54],"rewards_R":[51,45,39,43,54],"key_presses":["arrowleft","arrowright","arrowright","arrowright","arrowleft"],"response_times":[512,258,216,691,85],"outcomes":[63,45,39,43,54],"screen_resolution":1,"trial_type":"horizons-trial","trial_index":62,"time_elapsed":329937,"internal_node_id":"0.0-58.0"},{"horizon":10,"rewards_L":[29,30,22,31,32,39,29,32,33,29],"rewards_R":[49,38,25,41,36,38,41,46,36,43],"key_presses":["arrowleft","arrowright","arrowleft","arrowright","arrowleft","arrowleft","arrowright","arrowleft","arrowright","arrowleft"],"response_times":[575,275,391,320,90,270,296,311,220,241],"outcomes":[29,38,22,41,32,39,41,32,36,29],"screen_resolution":1,"trial_type":"horizons-trial","trial_index":63,"time_elapsed":334194,"internal_node_id":"0.0-59.0"},{"horizon":10,"rewards_L":[63,73,71,75,56,58,69,74,61,53],"rewards_R":[52,56,57,51,60,66,59,54,65,61],"key_presses":["arrowright","arrowleft","arrowright","arrowright","arrowleft","arrowleft","arrowright","arrowright","arrowleft","arrowright"],"response_times":[615,165,163,815,44,179,10,240,316,20],"outcomes":[52,73,57,51,56,58,59,54,61,61],"screen_resolution":1,"trial_type":"horizons-trial","trial_index":64,"time_elapsed":337519,"internal_node_id":"0.0-60.0"},{"horizon":10,"rewards_L":[49,29,40,24,48,49,43,48,30,45],"rewards_R":[24,21,49,29,38,32,38,27,23,15],"key_presses":["arrowleft","arrowleft","arrowright","arrowright","arrowleft","arrowright","arrowleft","arrowleft","arrowright","arrowleft"],"response_times":[470,227,40,392,11,212,10,190,10,197],"outcomes":[49,29,49,29,48,32,43,48,23,45],"screen_resolution":1,"trial_type":"horizons-trial","trial_index":65,"time_elapsed":340449,"internal_node_id":"0.0-61.0"},{"horizon":5,"rewards_L":[54,37,49,54,48],"rewards_R":[65,72,50,50,60],"key_presses":["arrowright","arrowright","arrowright","arrowleft","arrowleft"],"response_times":[290,300,200,15,226],"outcomes":[65,72,50,54,48],"screen_resolution":1,"trial_type":"horizons-trial","trial_index":66,"time_elapsed":342236,"internal_node_id":"0.0-62.0"},{"horizon":10,"rewards_L":[36,32,37,28,20,30,10,30,31,10],"rewards_R":[50,45,47,24,45,47,37,49,34,37],"key_presses":["arrowright","arrowleft","arrowleft","arrowleft","arrowright","arrowright","arrowleft","arrowleft","arrowright","arrowright"],"response_times":[410,10,325,225,10,221,9,220,10,261],"outcomes":[50,32,37,28,45,47,10,30,34,37],"screen_resolution":1,"trial_type":"horizons-trial","trial_index":67,"time_elapsed":344445,"internal_node_id":"0.0-63.0"},{"horizon":10,"rewards_L":[35,23,28,25,21,35,20,12,24,31],"rewards_R":[37,30,17,53,45,38,47,39,36,19],"key_presses":["arrowleft","arrowleft","arrowright","arrowright","arrowleft","arrowright","arrowleft","arrowright","arrowleft","arrowright"],"response_times":[595,276,34,210,211,30,196,20,210,21],"outcomes":[35,23,17,53,21,38,20,39,24,19],"screen_resolution":1,"trial_type":"horizons-trial","trial_index":68,"time_elapsed":346974,"internal_node_id":"0.0-64.0"},{"horizon":5,"rewards_L":[23,20,23,21,34],"rewards_R":[32,47,47,45,43],"key_presses":["arrowright","arrowleft","arrowright","arrowleft","arrowleft"],"response_times":[548,643,260,246,238],"outcomes":[32,20,47,21,34],"screen_resolution":1,"trial_type":"horizons-trial","trial_index":69,"time_elapsed":349744,"internal_node_id":"0.0-65.0"},{"horizon":5,"rewards_L":[57,67,54,69,57],"rewards_R":[63,60,52,50,60],"key_presses":["arrowleft","arrowleft","arrowright","arrowleft","arrowleft"],"response_times":[485,283,13,231,240],"outcomes":[57,67,52,69,57],"screen_resolution":1,"trial_type":"horizons-trial","trial_index":70,"time_elapsed":351591,"internal_node_id":"0.0-66.0"},{"horizon":5,"rewards_L":[50,41,41,59,57],"rewards_R":[50,50,29,46,37],"key_presses":["arrowleft","arrowright","arrowleft","arrowright","arrowright"],"response_times":[417,283,191,15,358],"outcomes":[50,50,41,46,37],"screen_resolution":1,"trial_type":"horizons-trial","trial_index":71,"time_elapsed":353470,"internal_node_id":"0.0-67.0"},{"horizon":10,"rewards_L":[59,59,56,61,59,59,65,48,48,42],"rewards_R":[41,41,51,48,45,49,31,41,41,46],"key_presses":["arrowleft","arrowleft","arrowright","arrowleft","arrowright","arrowleft","arrowleft","arrowright","arrowleft","arrowright"],"response_times":[690,205,176,40,175,21,185,44,156,25],"outcomes":[59,59,51,61,45,59,65,41,48,46],"screen_resolution":1,"trial_type":"horizons-trial","trial_index":72,"time_elapsed":355913,"internal_node_id":"0.0-68.0"},{"horizon":10,"rewards_L":[42,45,28,19,20,33,39,16,42,16],"rewards_R":[41,40,43,39,37,51,36,36,39,36],"key_presses":["arrowright","arrowright","arrowright","arrowleft","arrowleft","arrowright","arrowleft","arrowright","arrowleft","arrowright"],"response_times":[400,195,237,11,209,11,232,16,195,10],"outcomes":[41,40,43,19,20,51,39,36,42,36],"screen_resolution":1,"trial_type":"horizons-trial","trial_index":73,"time_elapsed":358137,"internal_node_id":"0.0-69.0"},{"horizon":10,"rewards_L":[67,65,57,73,60,57,62,58,48,63],"rewards_R":[61,51,49,48,47,47,54,58,53,49],"key_presses":["arrowleft","arrowright","arrowright","arrowright","arrowleft","arrowright","arrowleft","arrowright","arrowleft","arrowleft"],"response_times":[524,297,290,345,262,14,205,36,215,271],"outcomes":[67,51,49,48,60,47,62,58,48,63],"screen_resolution":1,"trial_type":"horizons-trial","trial_index":74,"time_elapsed":361156,"internal_node_id":"0.0-70.0"},{"horizon":10,"rewards_L":[65,70,66,58,74,67,71,57,55,60],"rewards_R":[58,61,51,63,60,50,38,65,68,65],"key_presses":["arrowleft","arrowleft","arrowleft","arrowright","arrowright","arrowleft","arrowleft","arrowright","arrowright","arrowleft"],"response_times":[15,471,231,45,187,11,199,30,155,33],"outcomes":[65,70,66,63,60,67,71,65,68,60],"screen_resolution":1,"trial_type":"horizons-trial","trial_index":75,"time_elapsed":363379,"internal_node_id":"0.0-71.0"},{"horizon":10,"rewards_L":[68,57,70,69,43,46,62,67,70,50],"rewards_R":[41,55,66,52,59,55,52,54,56,47],"key_presses":["arrowleft","arrowright","arrowleft","arrowright","arrowleft","arrowleft","arrowleft","arrowright","arrowleft","arrowright"],"response_times":[360,210,16,160,45,200,211,10,216,20],"outcomes":[68,55,70,52,43,46,62,54,70,47],"screen_resolution":1,"trial_type":"horizons-trial","trial_index":76,"time_elapsed":365528,"internal_node_id":"0.0-72.0"},{"horizon":10,"rewards_L":[45,49,49,38,41,51,40,41,54,51],"rewards_R":[66,56,53,62,64,47,62,58,70,59],"key_presses":["arrowright","arrowleft","arrowleft","arrowleft","arrowright","arrowleft","arrowright","arrowleft","arrowright","arrowright"],"response_times":[330,205,226,255,9,237,13,246,20,232],"outcomes":[66,49,49,38,64,51,62,41,70,59],"screen_resolution":1,"trial_type":"horizons-trial","trial_index":77,"time_elapsed":367807,"internal_node_id":"0.0-73.0"},{"horizon":5,"rewards_L":[21,32,54,25,32],"rewards_R":[59,60,81,59,60],"key_presses":["arrowright","arrowright","arrowright","arrowleft","arrowleft"],"response_times":[15,255,260,10,230],"outcomes":[59,60,81,25,32],"screen_resolution":1,"trial_type":"horizons-trial","trial_index":78,"time_elapsed":369149,"internal_node_id":"0.0-74.0"},{"horizon":5,"rewards_L":[23,24,38,20,26],"rewards_R":[67,43,61,52,50],"key_presses":["arrowleft","arrowright","arrowleft","arrowright","arrowleft"],"response_times":[330,21,225,15,231],"outcomes":[23,43,38,52,26],"screen_resolution":1,"trial_type":"horizons-trial","trial_index":79,"time_elapsed":370544,"internal_node_id":"0.0-75.0"},{"horizon":5,"rewards_L":[51,56,61,63,62],"rewards_R":[41,48,56,42,44],"key_presses":["arrowleft","arrowright","arrowright","arrowleft","arrowright"],"response_times":[307,28,232,210,61],"outcomes":[51,48,56,63,44],"screen_resolution":1,"trial_type":"horizons-trial","trial_index":80,"time_elapsed":371959,"internal_node_id":"0.0-76.0"},{"horizon":5,"rewards_L":[52,52,65,66,51],"rewards_R":[84,70,60,74,82],"key_presses":["arrowleft","arrowright","arrowleft","arrowright","arrowleft"],"response_times":[220,20,208,11,197],"outcomes":[52,70,65,74,51],"screen_resolution":1,"trial_type":"horizons-trial","trial_index":81,"time_elapsed":373192,"internal_node_id":"0.0-77.0"},{"horizon":5,"rewards_L":[37,30,36,47,43],"rewards_R":[37,38,35,34,25],"key_presses":["arrowleft","arrowright","arrowright","arrowright","arrowright"],"response_times":[283,190,218,254,237],"outcomes":[37,38,35,34,25],"screen_resolution":1,"trial_type":"horizons-trial","trial_index":82,"time_elapsed":375058,"internal_node_id":"0.0-78.0"},{"horizon":10,"rewards_L":[46,47,42,50,47,39,37,48,39,45],"rewards_R":[40,57,34,39,32,28,36,28,26,33],"key_presses":["arrowleft","arrowleft","arrowleft","arrowright","arrowright","arrowleft","arrowleft","arrowright","arrowleft","arrowleft"],"response_times":[516,535,244,17,200,41,179,16,201,230],"outcomes":[46,47,42,39,32,39,37,28,39,45],"screen_resolution":1,"trial_type":"horizons-trial","trial_index":83,"time_elapsed":378070,"internal_node_id":"0.0-79.0"},{"horizon":5,"rewards_L":[58,39,47,42,43],"rewards_R":[53,42,50,41,60],"key_presses":["arrowright","arrowleft","arrowright","arrowright","arrowleft"],"response_times":[614,310,198,213,10],"outcomes":[53,39,50,41,43],"screen_resolution":1,"trial_type":"horizons-trial","trial_index":84,"time_elapsed":380101,"internal_node_id":"0.0-80.0"},{"horizon":5,"rewards_L":[33,59,47,30,31],"rewards_R":[25,38,55,18,43],"key_presses":["arrowleft","arrowleft","arrowright","arrowright","arrowleft"],"response_times":[815,326,245,226,241],"outcomes":[33,59,55,18,31],"screen_resolution":1,"trial_type":"horizons-trial","trial_index":85,"time_elapsed":382956,"internal_node_id":"0.0-81.0"},{"horizon":10,"rewards_L":[27,19,21,32,37,18,19,45,36,34],"rewards_R":[58,55,70,80,59,64,45,60,77,66],"key_presses":["arrowright","arrowleft","arrowleft","arrowright","arrowleft","arrowright","arrowleft","arrowright","arrowleft","arrowright"],"response_times":[30,505,270,16,235,16,210,14,231,25],"outcomes":[58,19,21,80,37,64,19,60,36,66],"screen_resolution":1,"trial_type":"horizons-trial","trial_index":86,"time_elapsed":385123,"internal_node_id":"0.0-82.0"},{"horizon":5,"rewards_L":[56,49,67,80,57],"rewards_R":[57,53,65,61,48],"key_presses":["arrowleft","arrowleft","arrowleft","arrowright","arrowleft"],"response_times":[779,272,251,21,229],"outcomes":[56,49,67,61,57],"screen_resolution":1,"trial_type":"horizons-trial","trial_index":87,"time_elapsed":387192,"internal_node_id":"0.0-83.0"},{"horizon":5,"rewards_L":[44,31,36,46,50],"rewards_R":[39,25,21,34,40],"key_presses":["arrowright","arrowright","arrowleft","arrowleft","arrowright"],"response_times":[580,515,267,214,16],"outcomes":[39,25,36,46,40],"screen_resolution":1,"trial_type":"horizons-trial","trial_index":88,"time_elapsed":389436,"internal_node_id":"0.0-84.0"},{"horizon":5,"rewards_L":[52,34,25,41,41],"rewards_R":[17,19,22,24,27],"key_presses":["arrowleft","arrowleft","arrowleft","arrowright","arrowleft"],"response_times":[481,240,246,55,330],"outcomes":[52,34,25,24,41],"screen_resolution":1,"trial_type":"horizons-trial","trial_index":89,"time_elapsed":391589,"internal_node_id":"0.0-85.0"},{"horizon":5,"rewards_L":[42,48,33,43,48],"rewards_R":[31,18,30,29,26],"key_presses":["arrowleft","arrowright","arrowright","arrowright","arrowleft"],"response_times":[711,735,261,216,215],"outcomes":[42,18,30,29,48],"screen_resolution":1,"trial_type":"horizons-trial","trial_index":90,"time_elapsed":394524,"internal_node_id":"0.0-86.0"},{"horizon":5,"rewards_L":[54,40,49,44,36],"rewards_R":[33,45,36,45,51],"key_presses":["arrowright","arrowleft","arrowright","arrowleft","arrowleft"],"response_times":[512,11,220,10,233],"outcomes":[33,40,36,44,36],"screen_resolution":1,"trial_type":"horizons-trial","trial_index":91,"time_elapsed":396297,"internal_node_id":"0.0-87.0"},{"horizon":10,"rewards_L":[36,39,35,40,47,30,39,30,41,40],"rewards_R":[86,68,65,80,66,81,54,67,85,82],"key_presses":["arrowright","arrowleft","arrowleft","arrowright","arrowright","arrowleft","arrowleft","arrowright","arrowright","arrowleft"],"response_times":[501,231,215,20,200,20,200,10,216,26],"outcomes":[86,39,35,80,66,30,39,67,85,40],"screen_resolution":1,"trial_type":"horizons-trial","trial_index":92,"time_elapsed":398691,"internal_node_id":"0.0-88.0"},{"horizon":5,"rewards_L":[75,54,64,62,62],"rewards_R":[64,74,80,70,66],"key_presses":["arrowleft","arrowleft","arrowright","arrowright","arrowleft"],"response_times":[380,265,17,28,191],"outcomes":[75,54,80,70,62],"screen_resolution":1,"trial_type":"horizons-trial","trial_index":93,"time_elapsed":400213,"internal_node_id":"0.0-89.0"},{"horizon":10,"rewards_L":[31,36,29,38,38,39,31,39,46,40],"rewards_R":[3,28,0,13,19,15,21,3,18,0],"key_presses":["arrowleft","arrowright","arrowright","arrowright","arrowleft","arrowright","arrowleft","arrowleft","arrowright","arrowleft"],"response_times":[501,250,214,226,220,30,171,224,197,60],"outcomes":[31,28,0,13,38,15,31,39,18,40],"screen_resolution":1,"trial_type":"horizons-trial","trial_index":94,"time_elapsed":403118,"internal_node_id":"0.0-90.0"},{"horizon":5,"rewards_L":[54,64,62,65,70],"rewards_R":[35,51,50,47,53],"key_presses":["arrowleft","arrowleft","arrowleft","arrowright","arrowleft"],"response_times":[430,274,236,255,10],"outcomes":[54,64,62,47,70],"screen_resolution":1,"trial_type":"horizons-trial","trial_index":95,"time_elapsed":405055,"internal_node_id":"0.0-91.0"},{"horizon":5,"rewards_L":[64,60,59,56,44],"rewards_R":[76,82,71,88,70],"key_presses":["arrowright","arrowleft","arrowleft","arrowright","arrowleft"],"response_times":[249,26,441,310,170],"outcomes":[76,60,59,88,44],"screen_resolution":1,"trial_type":"horizons-trial","trial_index":96,"time_elapsed":408370,"internal_node_id":"0.0-92.0"},{"horizon":10,"rewards_L":[49,42,43,36,41,41,30,32,19,32],"rewards_R":[26,23,14,23,11,19,26,29,29,6],"key_presses":["arrowleft","arrowleft","arrowleft","arrowright","arrowleft","arrowright","arrowleft","arrowright","arrowleft","arrowright"],"response_times":[486,251,210,20,180,15,196,20,210,30],"outcomes":[49,42,43,23,41,19,30,29,19,6],"screen_resolution":1,"trial_type":"horizons-trial","trial_index":97,"time_elapsed":410608,"internal_node_id":"0.0-93.0"},{"horizon":5,"rewards_L":[45,52,50,56,70],"rewards_R":[48,31,29,40,24],"key_presses":["arrowleft","arrowleft","arrowright","arrowright","arrowleft"],"response_times":[13,623,226,511,175],"outcomes":[45,52,29,40,70],"screen_resolution":1,"trial_type":"horizons-trial","trial_index":98,"time_elapsed":412891,"internal_node_id":"0.0-94.0"},{"horizon":10,"rewards_L":[43,55,68,59,37,56,54,55,54,51],"rewards_R":[57,60,51,61,63,51,53,51,51,62],"key_presses":["arrowleft","arrowright","arrowright","arrowleft","arrowleft","arrowleft","arrowleft","arrowright","arrowleft","arrowright"],"response_times":[520,277,240,11,190,226,210,24,207,11],"outcomes":[43,60,51,59,37,56,54,51,54,62],"screen_resolution":1,"trial_type":"horizons-trial","trial_index":99,"time_elapsed":415321,"internal_node_id":"0.0-95.0"},{"horizon":5,"rewards_L":[67,69,80,66,79],"rewards_R":[58,55,56,57,59],"key_presses":["arrowright","arrowleft","arrowright","arrowleft","arrowright"],"response_times":[628,240,43,180,16],"outcomes":[58,69,56,66,59],"screen_resolution":1,"trial_type":"horizons-trial","trial_index":100,"time_elapsed":417059,"internal_node_id":"0.0-96.0"},{"horizon":5,"rewards_L":[60,58,82,73,67],"rewards_R":[26,42,39,32,24],"key_presses":["arrowleft","arrowright","arrowright","arrowright","arrowright"],"response_times":[572,243,268,223,217],"outcomes":[60,42,39,32,24],"screen_resolution":1,"trial_type":"horizons-trial","trial_index":101,"time_elapsed":419262,"internal_node_id":"0.0-97.0"},{"horizon":10,"rewards_L":[34,22,35,41,31,28,24,39,31,44],"rewards_R":[37,72,68,55,59,65,68,62,69,56],"key_presses":["arrowright","arrowright","arrowright","arrowleft","arrowleft","arrowright","arrowleft","arrowright","arrowleft","arrowright"],"response_times":[310,274,216,723,233,15,222,10,198,15],"outcomes":[37,72,68,41,31,65,24,62,31,56],"screen_resolution":1,"trial_type":"horizons-trial","trial_index":102,"time_elapsed":422244,"internal_node_id":"0.0-98.0"},{"horizon":10,"rewards_L":[48,52,58,55,56,54,77,57,54,60],"rewards_R":[82,81,68,81,85,75,65,66,78,90],"key_presses":["arrowright","arrowleft","arrowleft","arrowright","arrowright","arrowleft","arrowright","arrowleft","arrowright","arrowleft"],"response_times":[1155,268,241,241,245,23,146,46,225,42],"outcomes":[82,52,58,81,85,54,65,57,78,60],"screen_resolution":1,"trial_type":"horizons-trial","trial_index":103,"time_elapsed":425496,"internal_node_id":"0.0-99.0"},{"horizon":5,"rewards_L":[64,52,64,69,58],"rewards_R":[42,42,24,55,44],"key_presses":["arrowright","arrowright","arrowleft","arrowleft","arrowright"],"response_times":[580,451,286,230,21],"outcomes":[42,42,64,69,44],"screen_resolution":1,"trial_type":"horizons-trial","trial_index":104,"time_elapsed":427576,"internal_node_id":"0.0-100.0"},{"horizon":10,"rewards_L":[61,53,48,62,47,53,56,52,57,52],"rewards_R":[33,39,34,30,35,38,40,40,48,38],"key_presses":["arrowright","arrowleft","arrowright","arrowright","arrowleft","arrowright","arrowleft","arrowleft","arrowright","arrowright"],"response_times":[354,226,231,230,25,197,13,217,11,219],"outcomes":[33,53,34,30,47,38,56,52,48,38],"screen_resolution":1,"trial_type":"horizons-trial","trial_index":105,"time_elapsed":430034,"internal_node_id":"0.0-101.0"},{"horizon":10,"rewards_L":[66,65,57,64,56,61,63,52,67,76],"rewards_R":[74,70,82,78,68,77,68,64,78,89],"key_presses":["arrowleft","arrowright","arrowright","arrowleft","arrowright","arrowleft","arrowleft","arrowright","arrowleft","arrowright"],"response_times":[2123,260,220,186,245,10,140,10,187,11],"outcomes":[66,70,82,64,68,61,63,64,67,89],"screen_resolution":1,"trial_type":"horizons-trial","trial_index":106,"time_elapsed":434315,"internal_node_id":"0.0-102.0"},{"horizon":10,"rewards_L":[58,59,57,50,54,54,61,62,46,74],"rewards_R":[66,80,86,97,84,70,80,71,79,89],"key_presses":["arrowleft","arrowright","arrowleft","arrowleft","arrowright","arrowleft","arrowright","arrowleft","arrowright","arrowright"],"response_times":[746,16,211,229,24,200,20,260,40,430],"outcomes":[58,80,57,50,84,54,80,62,79,89],"screen_resolution":1,"trial_type":"horizons-trial","trial_index":107,"time_elapsed":437247,"internal_node_id":"0.0-103.0"},{"horizon":5,"rewards_L":[100,81,79,84,91],"rewards_R":[64,53,72,52,51],"key_presses":["arrowleft","arrowright","arrowright","arrowleft","arrowright"],"response_times":[503,240,250,205,20],"outcomes":[100,53,72,84,51],"screen_resolution":1,"trial_type":"horizons-trial","trial_index":108,"time_elapsed":439223,"internal_node_id":"0.0-104.0"},{"horizon":10,"rewards_L":[100,100,84,91,98,81,87,80,90,97],"rewards_R":[68,61,74,60,54,68,64,70,67,65],"key_presses":["arrowright","arrowleft","arrowright","arrowright","arrowleft","arrowright","arrowleft","arrowright","arrowleft","arrowright"],"response_times":[442,10,242,216,214,37,220,21,233,15],"outcomes":[68,100,74,60,98,68,87,70,90,65],"screen_resolution":1,"trial_type":"horizons-trial","trial_index":109,"time_elapsed":441396,"internal_node_id":"0.0-105.0"},{"horizon":10,"rewards_L":[39,46,41,35,45,35,33,42,47,42],"rewards_R":[29,27,18,30,34,34,26,22,40,18],"key_presses":["arrowright","arrowright","arrowleft","arrowleft","arrowright","arrowleft","arrowright","arrowleft","arrowright","arrowleft"],"response_times":[470,195,248,239,50,175,40,206,30,225],"outcomes":[29,27,41,35,34,35,26,42,40,42],"screen_resolution":1,"trial_type":"horizons-trial","trial_index":110,"time_elapsed":444090,"internal_node_id":"0.0-106.0"},{"horizon":5,"rewards_L":[31,50,32,40,40],"rewards_R":[68,64,55,70,63],"key_presses":["arrowright","arrowright","arrowleft","arrowright","arrowright"],"response_times":[2044,240,11,233,280],"outcomes":[68,64,32,70,63],"screen_resolution":1,"trial_type":"horizons-trial","trial_index":111,"time_elapsed":447430,"internal_node_id":"0.0-107.0"},{"horizon":5,"rewards_L":[79,87,63,74,83],"rewards_R":[63,70,52,61,59],"key_presses":["arrowleft","arrowleft","arrowright","arrowleft","arrowright"],"response_times":[29,230,156,746,26],"outcomes":[79,87,52,74,59],"screen_resolution":1,"trial_type":"horizons-trial","trial_index":112,"time_elapsed":449398,"internal_node_id":"0.0-108.0"},{"horizon":10,"rewards_L":[62,62,62,71,62,57,55,55,76,66],"rewards_R":[52,62,59,56,38,59,63,48,49,55],"key_presses":["arrowright","arrowleft","arrowright","arrowleft","arrowright","arrowleft","arrowright","arrowleft","arrowleft","arrowright"],"response_times":[435,35,175,16,214,26,204,20,241,9],"outcomes":[52,62,59,71,38,57,63,55,76,55],"screen_resolution":1,"trial_type":"horizons-trial","trial_index":113,"time_elapsed":451551,"internal_node_id":"0.0-109.0"},{"horizon":5,"rewards_L":[21,33,44,28,39],"rewards_R":[46,35,36,34,50],"key_presses":["arrowleft","arrowright","arrowleft","arrowright","arrowleft"],"response_times":[440,212,11,252,431],"outcomes":[21,35,44,34,39],"screen_resolution":1,"trial_type":"horizons-trial","trial_index":114,"time_elapsed":453746,"internal_node_id":"0.0-110.0"},{"horizon":10,"rewards_L":[37,30,46,36,41,34,39,35,50,40],"rewards_R":[58,59,50,49,70,45,60,51,59,65],"key_presses":["arrowleft","arrowright","arrowleft","arrowleft","arrowright","arrowright","arrowleft","arrowright","arrowleft","arrowleft"],"response_times":[408,85,180,221,9,210,40,226,15,367],"outcomes":[37,59,46,36,70,45,39,51,50,40],"screen_resolution":1,"trial_type":"horizons-trial","trial_index":115,"time_elapsed":456338,"internal_node_id":"0.0-111.0"},{"horizon":5,"rewards_L":[55,45,45,38,44],"rewards_R":[60,69,59,51,61],"key_presses":["arrowleft","arrowright","arrowright","arrowleft","arrowleft"],"response_times":[450,253,228,209,453],"outcomes":[55,69,59,38,44],"screen_resolution":1,"trial_type":"horizons-trial","trial_index":116,"time_elapsed":458727,"internal_node_id":"0.0-112.0"},{"horizon":5,"rewards_L":[47,46,53,55,37],"rewards_R":[54,50,50,55,56],"key_presses":["arrowright","arrowright","arrowright","arrowleft","arrowright"],"response_times":[667,272,253,250,14],"outcomes":[54,50,50,55,56],"screen_resolution":1,"trial_type":"horizons-trial","trial_index":117,"time_elapsed":461036,"internal_node_id":"0.0-113.0"},{"horizon":5,"rewards_L":[33,38,44,27,31],"rewards_R":[62,47,49,47,58],"key_presses":["arrowright","arrowleft","arrowleft","arrowleft","arrowright"],"response_times":[640,20,275,241,241],"outcomes":[62,38,44,27,58],"screen_resolution":1,"trial_type":"horizons-trial","trial_index":118,"time_elapsed":463021,"internal_node_id":"0.0-114.0"},{"horizon":10,"rewards_L":[51,52,52,60,59,58,59,69,49,64],"rewards_R":[43,41,47,36,52,44,36,45,43,40],"key_presses":["arrowright","arrowright","arrowleft","arrowleft","arrowright","arrowright","arrowleft","arrowleft","arrowright","arrowleft"],"response_times":[738,375,221,207,11,208,20,205,201,15],"outcomes":[43,41,52,60,52,44,59,69,43,64],"screen_resolution":1,"trial_type":"horizons-trial","trial_index":119,"time_elapsed":465777,"internal_node_id":"0.0-115.0"},{"horizon":5,"rewards_L":[52,53,56,52,58],"rewards_R":[77,75,75,66,75],"key_presses":["arrowleft","arrowright","arrowleft","arrowleft","arrowleft"],"response_times":[466,155,26,195,187],"outcomes":[52,75,56,52,58],"screen_resolution":1,"trial_type":"horizons-trial","trial_index":120,"time_elapsed":467515,"internal_node_id":"0.0-116.0"},{"horizon":10,"rewards_L":[80,78,87,66,88,86,82,82,83,86],"rewards_R":[56,55,55,54,53,65,64,62,63,53],"key_presses":["arrowleft","arrowleft","arrowright","arrowleft","arrowright","arrowleft","arrowright","arrowright","arrowleft","arrowleft"],"response_times":[318,224,11,226,16,211,15,275,10,257],"outcomes":[80,78,55,66,53,86,64,62,83,86],"screen_resolution":1,"trial_type":"horizons-trial","trial_index":121,"time_elapsed":469749,"internal_node_id":"0.0-117.0"},{"horizon":10,"rewards_L":[28,46,27,51,43,45,33,44,41,47],"rewards_R":[32,20,20,38,24,29,30,27,18,25],"key_presses":["arrowleft","arrowright","arrowleft","arrowright","arrowleft","arrowright","arrowright","arrowleft","arrowright","arrowleft"],"response_times":[490,14,250,15,211,24,441,9,161,15],"outcomes":[28,20,27,38,43,29,30,44,18,47],"screen_resolution":1,"trial_type":"horizons-trial","trial_index":122,"time_elapsed":472192,"internal_node_id":"0.0-118.0"},{"horizon":10,"rewards_L":[70,44,57,48,41,57,65,71,55,43],"rewards_R":[54,56,66,61,53,54,65,56,58,61],"key_presses":["arrowleft","arrowleft","arrowright","arrowright","arrowleft","arrowleft","arrowright","arrowright","arrowright","arrowright"],"response_times":[54,507,30,202,10,243,26,245,250,290],"outcomes":[70,44,66,61,41,57,65,56,58,61],"screen_resolution":1,"trial_type":"horizons-trial","trial_index":123,"time_elapsed":474780,"internal_node_id":"0.0-119.0"},{"horizon":10,"rewards_L":[61,57,64,67,45,62,55,61,59,61],"rewards_R":[35,34,33,34,29,36,22,24,25,20],"key_presses":["arrowright","arrowleft","arrowleft","arrowright","arrowleft","arrowright","arrowleft","arrowleft","arrowright","arrowleft"],"response_times":[15,881,283,273,26,230,14,203,23,252],"outcomes":[35,57,64,34,45,36,55,61,25,61],"screen_resolution":1,"trial_type":"horizons-trial","trial_index":124,"time_elapsed":477530,"internal_node_id":"0.0-120.0"},{"horizon":10,"rewards_L":[32,37,24,40,50,41,35,39,49,33],"rewards_R":[65,64,44,68,70,58,62,63,69,49],"key_presses":["arrowleft","arrowright","arrowleft","arrowright","arrowright","arrowleft","arrowright","arrowleft","arrowright","arrowleft"],"response_times":[290,324,228,220,183,20,186,40,152,11],"outcomes":[32,64,24,68,70,41,62,39,69,33],"screen_resolution":1,"trial_type":"horizons-trial","trial_index":125,"time_elapsed":479773,"internal_node_id":"0.0-121.0"},{"horizon":10,"rewards_L":[50,40,43,31,39,58,33,42,36,39],"rewards_R":[41,58,37,49,39,30,36,40,38,40],"key_presses":["arrowleft","arrowright","arrowleft","arrowleft","arrowright","arrowleft","arrowright","arrowleft","arrowright","arrowleft"],"response_times":[401,170,44,206,191,11,213,40,190,26],"outcomes":[50,58,43,31,39,58,36,42,38,39],"screen_resolution":1,"trial_type":"horizons-trial","trial_index":126,"time_elapsed":481891,"internal_node_id":"0.0-122.0"},{"horizon":5,"rewards_L":[34,52,42,47,41],"rewards_R":[49,58,41,39,53],"key_presses":["arrowleft","arrowleft","arrowright","arrowright","arrowleft"],"response_times":[29,605,24,199,11],"outcomes":[34,52,41,39,41],"screen_resolution":1,"trial_type":"horizons-trial","trial_index":127,"time_elapsed":483263,"internal_node_id":"0.0-123.0"},{"horizon":5,"rewards_L":[71,82,78,71,50],"rewards_R":[37,50,42,47,33],"key_presses":["arrowright","arrowright","arrowleft","arrowleft","arrowright"],"response_times":[347,300,11,263,9],"outcomes":[37,50,78,71,33],"screen_resolution":1,"trial_type":"horizons-trial","trial_index":128,"time_elapsed":484835,"internal_node_id":"0.0-124.0"},{"horizon":5,"rewards_L":[24,17,44,39,36],"rewards_R":[16,3,5,24,7],"key_presses":["arrowleft","arrowleft","arrowleft","arrowright","arrowleft"],"response_times":[10,506,204,16,234],"outcomes":[24,17,44,24,36],"screen_resolution":1,"trial_type":"horizons-trial","trial_index":129,"time_elapsed":486307,"internal_node_id":"0.0-125.0"},{"horizon":5,"rewards_L":[38,31,39,36,51],"rewards_R":[0,5,19,1,0],"key_presses":["arrowleft","arrowright","arrowright","arrowright","arrowleft"],"response_times":[237,13,200,407,20],"outcomes":[38,5,19,1,51],"screen_resolution":1,"trial_type":"horizons-trial","trial_index":130,"time_elapsed":487736,"internal_node_id":"0.0-126.0"},{"horizon":10,"rewards_L":[33,35,37,24,64,42,43,36,39,37],"rewards_R":[31,28,39,33,50,25,36,30,43,35],"key_presses":["arrowright","arrowright","arrowright","arrowleft","arrowleft","arrowright","arrowright","arrowleft","arrowright","arrowleft"],"response_times":[228,275,218,233,190,10,227,8,135,46],"outcomes":[31,28,39,24,64,25,36,36,43,37],"screen_resolution":1,"trial_type":"horizons-trial","trial_index":131,"time_elapsed":489913,"internal_node_id":"0.0-127.0"},{"horizon":10,"rewards_L":[40,40,46,47,42,31,27,50,35,38],"rewards_R":[56,57,58,55,71,55,51,49,66,67],"key_presses":["arrowleft","arrowleft","arrowright","arrowright","arrowleft","arrowright","arrowleft","arrowright","arrowleft","arrowright"],"response_times":[466,210,34,238,183,18,192,20,181,45],"outcomes":[40,40,58,55,42,55,27,49,35,67],"screen_resolution":1,"trial_type":"horizons-trial","trial_index":132,"time_elapsed":492157,"internal_node_id":"0.0-128.0"},{"horizon":10,"rewards_L":[10,12,12,7,3,17,8,12,12,14],"rewards_R":[31,45,32,32,41,36,33,32,41,38],"key_presses":["arrowright","arrowright","arrowright","arrowleft","arrowleft","arrowright","arrowleft","arrowright","arrowright","arrowleft"],"response_times":[440,190,256,145,190,30,186,50,174,26],"outcomes":[31,45,32,7,3,36,8,32,41,14],"screen_resolution":1,"trial_type":"horizons-trial","trial_index":133,"time_elapsed":494370,"internal_node_id":"0.0-129.0"},{"horizon":5,"rewards_L":[23,29,30,27,41],"rewards_R":[40,44,55,39,41],"key_presses":["arrowright","arrowright","arrowright","arrowleft","arrowleft"],"response_times":[378,883,250,261,260],"outcomes":[40,44,55,27,41],"screen_resolution":1,"trial_type":"horizons-trial","trial_index":134,"time_elapsed":496923,"internal_node_id":"0.0-130.0"},{"horizon":10,"rewards_L":[68,56,65,54,52,62,66,54,59,53],"rewards_R":[35,36,39,64,55,45,28,43,47,34],"key_presses":["arrowleft","arrowleft","arrowright","arrowleft","arrowright","arrowleft","arrowright","arrowleft","arrowleft","arrowright"],"response_times":[10,273,244,11,272,10,247,10,250,11],"outcomes":[68,56,39,54,55,62,28,54,59,34],"screen_resolution":1,"trial_type":"horizons-trial","trial_index":135,"time_elapsed":498832,"internal_node_id":"0.0-131.0"},{"horizon":10,"rewards_L":[54,72,61,38,61,52,55,65,71,55],"rewards_R":[82,86,83,88,81,94,83,84,96,95],"key_presses":["arrowleft","arrowright","arrowleft","arrowleft","arrowright","arrowleft","arrowleft","arrowright","arrowleft","arrowright"],"response_times":[11,288,241,330,252,11,250,11,238,14],"outcomes":[54,86,61,38,81,52,55,84,71,95],"screen_resolution":1,"trial_type":"horizons-trial","trial_index":136,"time_elapsed":501019,"internal_node_id":"0.0-132.0"},{"horizon":10,"rewards_L":[61,49,34,31,39,31,34,39,44,39],"rewards_R":[18,21,28,20,14,23,23,20,17,14],"key_presses":["arrowleft","arrowright","arrowright","arrowleft","arrowleft","arrowright","arrowleft","arrowright","arrowleft","arrowright"],"response_times":[200,41,210,19,268,10,248,50,205,40],"outcomes":[61,21,28,31,39,23,34,20,44,14],"screen_resolution":1,"trial_type":"horizons-trial","trial_index":137,"time_elapsed":502878,"internal_node_id":"0.0-133.0"},{"horizon":10,"rewards_L":[53,59,47,61,67,60,53,64,60,66],"rewards_R":[46,32,39,40,27,22,23,39,40,42],"key_presses":["arrowleft","arrowright","arrowright","arrowright","arrowleft","arrowright","arrowright","arrowleft","arrowleft","arrowright"],"response_times":[254,286,816,230,290,15,512,10,203,16],"outcomes":[53,32,39,40,67,22,23,64,60,42],"screen_resolution":1,"trial_type":"horizons-trial","trial_index":138,"time_elapsed":506049,"internal_node_id":"0.0-134.0"},{"horizon":10,"rewards_L":[44,61,47,62,54,56,53,55,36,51],"rewards_R":[53,54,57,53,67,62,60,59,69,63],"key_presses":["arrowright","arrowleft","arrowleft","arrowleft","arrowleft","arrowleft","arrowright","arrowleft","arrowleft","arrowright"],"response_times":[783,275,281,227,29,280,25,511,200,15],"outcomes":[53,61,47,62,54,56,60,55,36,63],"screen_resolution":1,"trial_type":"horizons-trial","trial_index":139,"time_elapsed":509181,"internal_node_id":"0.0-135.0"},{"horizon":10,"rewards_L":[28,33,36,36,27,51,37,33,22,43],"rewards_R":[34,29,30,27,35,33,41,23,30,44],"key_presses":["arrowleft","arrowright","arrowright","arrowright","arrowleft","arrowright","arrowright","arrowleft","arrowright","arrowleft"],"response_times":[247,223,418,293,15,215,260,231,15,235],"outcomes":[28,29,30,27,27,33,41,33,30,43],"screen_resolution":1,"trial_type":"horizons-trial","trial_index":140,"time_elapsed":512116,"internal_node_id":"0.0-136.0"},{"horizon":10,"rewards_L":[0,9,0,3,6,22,13,11,4,18],"rewards_R":[41,41,44,40,44,51,38,25,30,43],"key_presses":["arrowright","arrowright","arrowleft","arrowleft","arrowleft","arrowright","arrowright","arrowleft","arrowleft","arrowright"],"response_times":[585,350,601,265,218,243,251,20,176,35],"outcomes":[41,41,0,3,6,51,38,11,4,43],"screen_resolution":1,"trial_type":"horizons-trial","trial_index":141,"time_elapsed":515515,"internal_node_id":"0.0-137.0"},{"horizon":5,"rewards_L":[89,77,82,70,83],"rewards_R":[61,53,56,66,69],"key_presses":["arrowleft","arrowleft","arrowright","arrowleft","arrowleft"],"response_times":[8087,340,330,641,310],"outcomes":[89,77,56,70,83],"screen_resolution":1,"trial_type":"horizons-trial","trial_index":142,"time_elapsed":525935,"internal_node_id":"0.0-138.0"},{"horizon":5,"rewards_L":[61,47,63,68,63],"rewards_R":[64,75,66,67,62],"key_presses":["arrowright","arrowright","arrowleft","arrowright","arrowright"],"response_times":[335,723,278,241,255],"outcomes":[64,75,63,67,62],"screen_resolution":1,"trial_type":"horizons-trial","trial_index":143,"time_elapsed":528549,"internal_node_id":"0.0-139.0"},{"horizon":5,"rewards_L":[43,32,44,25,26],"rewards_R":[35,53,38,55,35],"key_presses":["arrowright","arrowleft","arrowleft","arrowleft","arrowright"],"response_times":[67,250,270,290,240],"outcomes":[35,32,44,25,35],"screen_resolution":1,"trial_type":"horizons-trial","trial_index":144,"time_elapsed":530241,"internal_node_id":"0.0-140.0"},{"horizon":5,"rewards_L":[81,58,74,58,71],"rewards_R":[63,71,65,68,52],"key_presses":["arrowright","arrowleft","arrowright","arrowright","arrowright"],"response_times":[270,238,262,256,295],"outcomes":[63,58,65,68,52],"screen_resolution":1,"trial_type":"horizons-trial","trial_index":145,"time_elapsed":532109,"internal_node_id":"0.0-141.0"},{"horizon":10,"rewards_L":[63,46,70,65,61,61,56,67,52,54],"rewards_R":[68,80,75,81,72,65,57,57,53,70],"key_presses":["arrowleft","arrowright","arrowleft","arrowright","arrowleft","arrowright","arrowright","arrowleft","arrowleft","arrowleft"],"response_times":[30,270,278,22,243,12,196,55,310,251],"outcomes":[63,80,70,81,61,65,57,67,52,54],"screen_resolution":1,"trial_type":"horizons-trial","trial_index":146,"time_elapsed":534307,"internal_node_id":"0.0-142.0"},{"horizon":5,"rewards_L":[48,37,58,51,44],"rewards_R":[55,50,59,65,49],"key_presses":["arrowright","arrowright","arrowleft","arrowright","arrowleft"],"response_times":[319,421,651,310,270],"outcomes":[55,50,58,65,44],"screen_resolution":1,"trial_type":"horizons-trial","trial_index":147,"time_elapsed":536926,"internal_node_id":"0.0-143.0"},{"horizon":5,"rewards_L":[60,59,59,58,51],"rewards_R":[39,34,52,38,28],"key_presses":["arrowright","arrowleft","arrowright","arrowright","arrowleft"],"response_times":[294,36,334,307,290],"outcomes":[39,59,52,38,51],"screen_resolution":1,"trial_type":"horizons-trial","trial_index":148,"time_elapsed":538753,"internal_node_id":"0.0-144.0"},{"horizon":5,"rewards_L":[27,35,38,47,41],"rewards_R":[35,34,47,26,42],"key_presses":["arrowright","arrowleft","arrowleft","arrowleft","arrowright"],"response_times":[19,336,285,471,401],"outcomes":[35,35,38,47,42],"screen_resolution":1,"trial_type":"horizons-trial","trial_index":149,"time_elapsed":540943,"internal_node_id":"0.0-145.0"},{"horizon":10,"rewards_L":[42,54,57,43,50,50,57,42,44,42],"rewards_R":[48,48,39,46,29,56,52,33,40,37],"key_presses":["arrowright","arrowleft","arrowleft","arrowright","arrowleft","arrowright","arrowright","arrowleft","arrowleft","arrowleft"],"response_times":[293,10,260,10,230,11,226,10,223,206],"outcomes":[48,54,57,46,50,56,52,42,44,42],"screen_resolution":1,"trial_type":"horizons-trial","trial_index":150,"time_elapsed":543039,"internal_node_id":"0.0-146.0"},{"horizon":10,"rewards_L":[57,53,51,62,62,51,60,66,53,64],"rewards_R":[74,72,81,61,77,63,83,63,83,87],"key_presses":["arrowleft","arrowright","arrowleft","arrowleft","arrowright","arrowleft","arrowright","arrowleft","arrowright","arrowleft"],"response_times":[25,455,358,269,22,233,30,240,15,256],"outcomes":[57,72,51,62,77,51,83,66,83,64],"screen_resolution":1,"trial_type":"horizons-trial","trial_index":151,"time_elapsed":545670,"internal_node_id":"0.0-147.0"},{"horizon":10,"rewards_L":[69,62,49,58,53,66,46,55,58,56],"rewards_R":[65,53,51,61,57,56,66,43,64,64],"key_presses":["arrowright","arrowleft","arrowleft","arrowleft","arrowright","arrowleft","arrowright","arrowright","arrowright","arrowright"],"response_times":[263,173,244,639,74,228,10,228,320,165],"outcomes":[65,62,49,58,57,66,66,43,64,64],"screen_resolution":1,"trial_type":"horizons-trial","trial_index":152,"time_elapsed":548543,"internal_node_id":"0.0-148.0"},{"horizon":5,"rewards_L":[16,38,19,29,39],"rewards_R":[51,33,49,40,34],"key_presses":["arrowright","arrowleft","arrowleft","arrowleft","arrowright"],"response_times":[41,226,244,248,85],"outcomes":[51,38,19,29,34],"screen_resolution":1,"trial_type":"horizons-trial","trial_index":153,"time_elapsed":550075,"internal_node_id":"0.0-149.0"},{"horizon":5,"rewards_L":[46,43,49,48,41],"rewards_R":[50,44,51,53,67],"key_presses":["arrowleft","arrowright","arrowleft","arrowleft","arrowright"],"response_times":[492,10,269,270,34],"outcomes":[46,44,49,48,67],"screen_resolution":1,"trial_type":"horizons-trial","trial_index":154,"time_elapsed":551943,"internal_node_id":"0.0-150.0"},{"horizon":5,"rewards_L":[76,59,68,70,71],"rewards_R":[62,80,72,55,78],"key_presses":["arrowleft","arrowright","arrowleft","arrowleft","arrowright"],"response_times":[9,331,289,272,36],"outcomes":[76,80,68,70,78],"screen_resolution":1,"trial_type":"horizons-trial","trial_index":155,"time_elapsed":553414,"internal_node_id":"0.0-151.0"},{"horizon":10,"rewards_L":[78,57,47,53,79,51,64,50,49,59],"rewards_R":[66,59,48,58,67,54,66,72,71,67],"key_presses":["arrowleft","arrowleft","arrowright","arrowright","arrowleft","arrowright","arrowleft","arrowright","arrowleft","arrowright"],"response_times":[277,286,11,272,185,15,205,256,315,30],"outcomes":[78,57,48,58,79,54,64,72,49,67],"screen_resolution":1,"trial_type":"horizons-trial","trial_index":156,"time_elapsed":555803,"internal_node_id":"0.0-152.0"},{"horizon":10,"rewards_L":[50,52,46,48,57,46,53,40,38,53],"rewards_R":[32,42,39,35,38,42,49,39,35,42],"key_presses":["arrowleft","arrowright","arrowright","arrowleft","arrowright","arrowleft","arrowright","arrowleft","arrowright","arrowleft"],"response_times":[270,15,275,255,20,255,20,235,15,250],"outcomes":[50,42,39,48,38,46,49,40,35,53],"screen_resolution":1,"trial_type":"horizons-trial","trial_index":157,"time_elapsed":558031,"internal_node_id":"0.0-153.0"},{"horizon":10,"rewards_L":[44,46,38,40,56,37,41,47,44,40],"rewards_R":[41,35,42,60,35,33,35,44,27,39],"key_presses":["arrowleft","arrowleft","arrowright","arrowleft","arrowright","arrowright","arrowleft","arrowright","arrowleft","arrowright"],"response_times":[19,246,15,257,12,262,16,235,60,209],"outcomes":[44,46,42,40,35,33,41,44,44,39],"screen_resolution":1,"trial_type":"horizons-trial","trial_index":158,"time_elapsed":559903,"internal_node_id":"0.0-154.0"},{"horizon":10,"rewards_L":[69,58,49,64,52,59,56,52,63,58],"rewards_R":[42,54,46,45,55,39,58,49,39,56],"key_presses":["arrowleft","arrowright","arrowright","arrowright","arrowleft","arrowright","arrowleft","arrowright","arrowright","arrowleft"],"response_times":[291,20,346,305,241,20,266,20,255,10],"outcomes":[69,54,46,45,52,39,56,49,39,58],"screen_resolution":1,"trial_type":"horizons-trial","trial_index":159,"time_elapsed":562226,"internal_node_id":"0.0-155.0"},{"horizon":10,"rewards_L":[37,31,44,37,48,40,38,35,48,45],"rewards_R":[49,33,32,39,65,32,53,32,43,41],"key_presses":["arrowleft","arrowleft","arrowright","arrowright","arrowleft","arrowleft","arrowright","arrowleft","arrowright","arrowleft"],"response_times":[270,290,25,265,54,222,45,225,43,248],"outcomes":[37,31,32,39,48,40,53,35,43,45],"screen_resolution":1,"trial_type":"horizons-trial","trial_index":160,"time_elapsed":564505,"internal_node_id":"0.0-156.0"},{"horizon":10,"rewards_L":[83,100,84,86,84,86,91,100,98,81],"rewards_R":[62,58,64,66,62,60,61,54,59,50],"key_presses":["arrowright","arrowright","arrowleft","arrowleft","arrowright","arrowleft","arrowright","arrowright","arrowleft","arrowright"],"response_times":[260,332,11,580,10,353,11,295,45,280],"outcomes":[62,58,84,86,62,86,61,54,98,50],"screen_resolution":1,"trial_type":"horizons-trial","trial_index":161,"time_elapsed":567264,"internal_node_id":"0.0-157.0"},{"horizon":10,"rewards_L":[38,26,26,48,34,41,32,23,38,46],"rewards_R":[32,46,51,50,38,42,68,63,50,51],"key_presses":["arrowleft","arrowright","arrowleft","arrowleft","arrowright","arrowleft","arrowright","arrowright","arrowleft","arrowright"],"response_times":[327,11,312,324,47,271,16,355,36,278],"outcomes":[38,46,26,48,38,41,68,63,38,51],"screen_resolution":1,"trial_type":"horizons-trial","trial_index":162,"time_elapsed":569762,"internal_node_id":"0.0-158.0"},{"horizon":5,"rewards_L":[99,97,70,99,84],"rewards_R":[63,68,70,60,58],"key_presses":["arrowleft","arrowleft","arrowright","arrowleft","arrowright"],"response_times":[35,329,276,35,240],"outcomes":[99,97,70,99,58],"screen_resolution":1,"trial_type":"horizons-trial","trial_index":163,"time_elapsed":571396,"internal_node_id":"0.0-159.0"},{"horizon":10,"rewards_L":[56,69,79,60,64,63,67,70,66,52],"rewards_R":[42,52,40,46,50,51,46,58,46,50],"key_presses":["arrowleft","arrowright","arrowright","arrowright","arrowleft","arrowright","arrowleft","arrowleft","arrowright","arrowleft"],"response_times":[513,294,287,267,11,259,11,253,16,215],"outcomes":[56,52,40,46,64,51,67,70,46,52],"screen_resolution":1,"trial_type":"horizons-trial","trial_index":164,"time_elapsed":574038,"internal_node_id":"0.0-160.0"},{"horizon":10,"rewards_L":[47,25,42,45,41,45,50,36,45,39],"rewards_R":[27,11,11,14,31,28,23,24,17,30],"key_presses":["arrowleft","arrowright","arrowright","arrowright","arrowleft","arrowright","arrowright","arrowright","arrowright","arrowright"],"response_times":[315,301,266,270,20,196,249,236,285,270],"outcomes":[47,11,11,14,41,28,23,24,17,30],"screen_resolution":1,"trial_type":"horizons-trial","trial_index":165,"time_elapsed":576987,"internal_node_id":"0.0-161.0"},{"horizon":10,"rewards_L":[40,46,22,45,33,27,39,48,34,39],"rewards_R":[66,64,57,49,61,61,74,56,64,66],"key_presses":["arrowleft","arrowright","arrowleft","arrowright","arrowright","arrowleft","arrowleft","arrowright","arrowleft","arrowleft"],"response_times":[633,327,170,47,351,28,235,9,231,266],"outcomes":[40,64,22,49,61,27,39,56,34,39],"screen_resolution":1,"trial_type":"horizons-trial","trial_index":166,"time_elapsed":579826,"internal_node_id":"0.0-162.0"},{"horizon":5,"rewards_L":[66,57,51,65,64],"rewards_R":[53,37,36,40,45],"key_presses":["arrowleft","arrowright","arrowright","arrowleft","arrowleft"],"response_times":[505,320,531,269,204],"outcomes":[66,37,36,65,64],"screen_resolution":1,"trial_type":"horizons-trial","trial_index":167,"time_elapsed":582453,"internal_node_id":"0.0-163.0"},{"horizon":10,"rewards_L":[13,32,33,21,28,27,39,22,35,31],"rewards_R":[21,33,33,34,32,29,39,38,36,58],"key_presses":["arrowright","arrowleft","arrowleft","arrowleft","arrowright","arrowright","arrowleft","arrowright","arrowright","arrowleft"],"response_times":[521,320,501,246,14,221,10,250,296,285],"outcomes":[21,32,33,21,32,29,39,38,36,31],"screen_resolution":1,"trial_type":"horizons-trial","trial_index":168,"time_elapsed":585861,"internal_node_id":"0.0-164.0"},{"horizon":10,"rewards_L":[33,40,42,28,23,34,56,33,32,34],"rewards_R":[46,55,50,55,52,48,45,57,60,65],"key_presses":["arrowright","arrowright","arrowleft","arrowright","arrowleft","arrowright","arrowleft","arrowright","arrowright","arrowleft"],"response_times":[567,277,243,66,184,16,241,9,282,10],"outcomes":[46,55,42,55,23,48,56,57,60,34],"screen_resolution":1,"trial_type":"horizons-trial","trial_index":169,"time_elapsed":588292,"internal_node_id":"0.0-165.0"},{"horizon":5,"rewards_L":[51,54,45,35,48],"rewards_R":[48,43,35,50,40],"key_presses":["arrowleft","arrowright","arrowright","arrowleft","arrowright"],"response_times":[15,285,574,12,315],"outcomes":[51,43,35,35,40],"screen_resolution":1,"trial_type":"horizons-trial","trial_index":170,"time_elapsed":590059,"internal_node_id":"0.0-166.0"},{"horizon":5,"rewards_L":[63,48,67,65,54],"rewards_R":[89,86,92,86,87],"key_presses":["arrowleft","arrowright","arrowleft","arrowleft","arrowright"],"response_times":[285,310,281,280,20],"outcomes":[63,86,67,65,87],"screen_resolution":1,"trial_type":"horizons-trial","trial_index":171,"time_elapsed":591806,"internal_node_id":"0.0-167.0"},{"horizon":5,"rewards_L":[16,15,23,32,20],"rewards_R":[27,30,59,28,32],"key_presses":["arrowleft","arrowright","arrowleft","arrowright","arrowleft"],"response_times":[410,266,110,200,20],"outcomes":[16,30,23,28,20],"screen_resolution":1,"trial_type":"horizons-trial","trial_index":172,"time_elapsed":593363,"internal_node_id":"0.0-168.0"},{"horizon":10,"rewards_L":[38,38,34,39,26,58,30,53,46,31],"rewards_R":[69,42,67,61,52,59,64,62,53,55],"key_presses":["arrowright","arrowright","arrowleft","arrowright","arrowleft","arrowright","arrowleft","arrowright","arrowleft","arrowright"],"response_times":[40,255,275,13,298,24,278,11,288,14],"outcomes":[69,42,34,61,26,59,30,62,46,55],"screen_resolution":1,"trial_type":"horizons-trial","trial_index":173,"time_elapsed":595391,"internal_node_id":"0.0-169.0"},{"horizon":5,"rewards_L":[88,79,66,95,82],"rewards_R":[63,57,59,61,63],"key_presses":["arrowleft","arrowleft","arrowright","arrowright","arrowleft"],"response_times":[29,336,230,345,10],"outcomes":[88,79,59,61,82],"screen_resolution":1,"trial_type":"horizons-trial","trial_index":174,"time_elapsed":597038,"internal_node_id":"0.0-170.0"},{"horizon":5,"rewards_L":[50,50,71,63,55],"rewards_R":[58,58,56,57,53],"key_presses":["arrowleft","arrowright","arrowright","arrowright","arrowleft"],"response_times":[285,27,319,320,54],"outcomes":[50,58,56,57,55],"screen_resolution":1,"trial_type":"horizons-trial","trial_index":175,"time_elapsed":599072,"internal_node_id":"0.0-171.0"},{"horizon":5,"rewards_L":[55,58,64,65,68],"rewards_R":[71,57,77,63,68],"key_presses":["arrowright","arrowright","arrowleft","arrowright","arrowleft"],"response_times":[1019,302,11,343,220],"outcomes":[71,57,64,63,68],"screen_resolution":1,"trial_type":"horizons-trial","trial_index":176,"time_elapsed":601552,"internal_node_id":"0.0-172.0"},{"horizon":10,"rewards_L":[37,32,24,28,36,37,42,25,20,23],"rewards_R":[64,54,68,59,55,46,72,58,51,53],"key_presses":["arrowleft","arrowright","arrowright","arrowleft","arrowright","arrowleft","arrowright","arrowleft","arrowright","arrowleft"],"response_times":[247,16,285,25,270,15,290,11,270,9],"outcomes":[37,54,68,28,55,37,72,25,51,23],"screen_resolution":1,"trial_type":"horizons-trial","trial_index":177,"time_elapsed":603538,"internal_node_id":"0.0-173.0"},{"horizon":10,"rewards_L":[54,44,35,31,46,46,47,44,41,54],"rewards_R":[56,69,75,69,62,71,62,53,49,56],"key_presses":["arrowright","arrowright","arrowleft","arrowleft","arrowright","arrowleft","arrowleft","arrowright","arrowright","arrowleft"],"response_times":[513,1572,20,278,289,13,258,8,292,8],"outcomes":[56,69,35,31,62,46,47,53,49,54],"screen_resolution":1,"trial_type":"horizons-trial","trial_index":178,"time_elapsed":607527,"internal_node_id":"0.0-174.0"},{"horizon":5,"rewards_L":[41,39,38,47,36],"rewards_R":[54,69,50,48,56],"key_presses":["arrowright","arrowleft","arrowleft","arrowleft","arrowright"],"response_times":[15,254,270,531,64131],"outcomes":[54,39,38,47,56],"screen_resolution":1,"trial_type":"horizons-trial","trial_index":179,"time_elapsed":673300,"internal_node_id":"0.0-175.0"},{"horizon":5,"rewards_L":[36,30,34,43,30],"rewards_R":[31,42,41,35,28],"key_presses":["arrowleft","arrowright","arrowleft","arrowright","arrowleft"],"response_times":[230,10,210,203,198],"outcomes":[36,42,34,35,30],"screen_resolution":1,"trial_type":"horizons-trial","trial_index":180,"time_elapsed":674801,"internal_node_id":"0.0-176.0"},{"horizon":5,"rewards_L":[39,46,45,41,42],"rewards_R":[51,49,57,51,52],"key_presses":["arrowleft","arrowright","arrowright","arrowleft","arrowright"],"response_times":[251,10,439,232,11],"outcomes":[39,49,57,41,52],"screen_resolution":1,"trial_type":"horizons-trial","trial_index":181,"time_elapsed":676348,"internal_node_id":"0.0-177.0"},{"horizon":5,"rewards_L":[47,60,55,62,64],"rewards_R":[35,52,47,70,49],"key_presses":["arrowleft","arrowright","arrowright","arrowright","arrowleft"],"response_times":[9,210,201,206,15],"outcomes":[47,52,47,70,64],"screen_resolution":1,"trial_type":"horizons-trial","trial_index":182,"time_elapsed":677666,"internal_node_id":"0.0-178.0"},{"horizon":5,"rewards_L":[62,81,60,62,60],"rewards_R":[75,64,55,70,52],"key_presses":["arrowright","arrowleft","arrowleft","arrowright","arrowleft"],"response_times":[14,200,216,435,66],"outcomes":[75,81,60,70,60],"screen_resolution":1,"trial_type":"horizons-trial","trial_index":183,"time_elapsed":679222,"internal_node_id":"0.0-179.0"},{"horizon":5,"rewards_L":[65,60,75,45,58],"rewards_R":[83,82,92,71,64],"key_presses":["arrowright","arrowright","arrowleft","arrowright","arrowleft"],"response_times":[249,226,205,16,212],"outcomes":[83,82,75,71,58],"screen_resolution":1,"trial_type":"horizons-trial","trial_index":184,"time_elapsed":680850,"internal_node_id":"0.0-180.0"},{"horizon":5,"rewards_L":[0,10,0,6,17],"rewards_R":[42,48,49,63,33],"key_presses":["arrowright","arrowleft","arrowleft","arrowleft","arrowright"],"response_times":[239,250,232,223,10],"outcomes":[42,10,0,6,33],"screen_resolution":1,"trial_type":"horizons-trial","trial_index":185,"time_elapsed":682531,"internal_node_id":"0.0-181.0"},{"horizon":10,"rewards_L":[82,76,79,78,93,71,72,83,77,84],"rewards_R":[65,67,52,52,61,47,71,66,62,52],"key_presses":["arrowleft","arrowleft","arrowright","arrowright","arrowright","arrowleft","arrowright","arrowright","arrowleft","arrowright"],"response_times":[264,220,20,220,217,11,236,234,11,250],"outcomes":[82,76,52,52,61,71,71,66,77,52],"screen_resolution":1,"trial_type":"horizons-trial","trial_index":186,"time_elapsed":684719,"internal_node_id":"0.0-182.0"},{"horizon":5,"rewards_L":[44,48,37,41,44],"rewards_R":[33,27,27,16,15],"key_presses":["arrowleft","arrowleft","arrowleft","arrowright","arrowleft"],"response_times":[267,253,265,188,57],"outcomes":[44,48,37,16,44],"screen_resolution":1,"trial_type":"horizons-trial","trial_index":187,"time_elapsed":686461,"internal_node_id":"0.0-183.0"},{"horizon":10,"rewards_L":[59,57,47,62,60,59,50,72,59,56],"rewards_R":[42,44,45,47,30,51,50,32,53,37],"key_presses":["arrowright","arrowleft","arrowright","arrowright","arrowright","arrowleft","arrowleft","arrowright","arrowright","arrowleft"],"response_times":[250,300,276,305,217,29,225,10,195,70],"outcomes":[42,57,45,47,30,59,50,32,53,56],"screen_resolution":1,"trial_type":"horizons-trial","trial_index":188,"time_elapsed":688910,"internal_node_id":"0.0-184.0"},{"horizon":10,"rewards_L":[57,50,77,69,52,47,68,54,66,68],"rewards_R":[16,22,27,34,20,14,23,34,34,29],"key_presses":["arrowleft","arrowright","arrowright","arrowleft","arrowright","arrowleft","arrowleft","arrowright","arrowright","arrowleft"],"response_times":[284,230,236,25,227,10,263,12,224,20],"outcomes":[57,22,27,69,20,47,68,34,34,68],"screen_resolution":1,"trial_type":"horizons-trial","trial_index":189,"time_elapsed":690972,"internal_node_id":"0.0-185.0"},{"horizon":10,"rewards_L":[40,49,58,49,68,48,46,55,35,54],"rewards_R":[59,58,45,68,63,57,49,62,49,75],"key_presses":["arrowright","arrowleft","arrowleft","arrowright","arrowright","arrowleft","arrowleft","arrowright","arrowleft","arrowright"],"response_times":[215,281,230,479,269,11,228,45,190,16],"outcomes":[59,49,58,68,63,48,46,62,35,75],"screen_resolution":1,"trial_type":"horizons-trial","trial_index":190,"time_elapsed":693926,"internal_node_id":"0.0-186.0"},{"horizon":5,"rewards_L":[81,80,74,72,76],"rewards_R":[32,36,38,36,32],"key_presses":["arrowright","arrowleft","arrowright","arrowleft","arrowright"],"response_times":[315,336,245,251,16],"outcomes":[32,80,38,72,32],"screen_resolution":1,"trial_type":"horizons-trial","trial_index":191,"time_elapsed":695593,"internal_node_id":"0.0-187.0"},{"horizon":5,"rewards_L":[29,37,21,23,31],"rewards_R":[27,39,44,48,33],"key_presses":["arrowright","arrowright","arrowright","arrowleft","arrowright"],"response_times":[24,241,301,260,21],"outcomes":[27,39,44,23,33],"screen_resolution":1,"trial_type":"horizons-trial","trial_index":192,"time_elapsed":696972,"internal_node_id":"0.0-188.0"},{"horizon":5,"rewards_L":[72,56,58,54,56],"rewards_R":[43,63,63,53,47],"key_presses":["arrowleft","arrowleft","arrowright","arrowleft","arrowright"],"response_times":[273,278,299,260,24],"outcomes":[72,56,63,54,47],"screen_resolution":1,"trial_type":"horizons-trial","trial_index":193,"time_elapsed":698687,"internal_node_id":"0.0-189.0"},{"horizon":10,"rewards_L":[49,39,52,51,44,42,57,48,61,69],"rewards_R":[55,58,66,38,68,59,56,56,61,58],"key_presses":["arrowright","arrowleft","arrowright","arrowleft","arrowright","arrowleft","arrowright","arrowleft","arrowright","arrowleft"],"response_times":[315,881,21,304,10,230,10,227,11,213],"outcomes":[55,39,66,51,68,42,56,48,61,69],"screen_resolution":1,"trial_type":"horizons-trial","trial_index":194,"time_elapsed":701620,"internal_node_id":"0.0-190.0"},{"horizon":5,"rewards_L":[30,46,43,42,36],"rewards_R":[60,39,43,56,40],"key_presses":["arrowleft","arrowright","arrowleft","arrowright","arrowleft"],"response_times":[15,473,228,184,10],"outcomes":[30,39,43,56,36],"screen_resolution":1,"trial_type":"horizons-trial","trial_index":195,"time_elapsed":703162,"internal_node_id":"0.0-191.0"},{"horizon":5,"rewards_L":[34,47,32,45,41],"rewards_R":[58,60,60,58,68],"key_presses":["arrowright","arrowleft","arrowright","arrowleft","arrowright"],"response_times":[411,260,208,413,210],"outcomes":[58,47,60,45,68],"screen_resolution":1,"trial_type":"horizons-trial","trial_index":196,"time_elapsed":705319,"internal_node_id":"0.0-192.0"},{"horizon":10,"rewards_L":[57,68,57,68,67,67,44,48,61,54],"rewards_R":[36,47,35,46,72,37,52,56,29,54],"key_presses":["arrowleft","arrowright","arrowright","arrowleft","arrowright","arrowleft","arrowleft","arrowright","arrowleft","arrowright"],"response_times":[224,11,199,10,203,11,210,10,216,23],"outcomes":[57,47,35,68,72,67,44,56,61,54],"screen_resolution":1,"trial_type":"horizons-trial","trial_index":197,"time_elapsed":707049,"internal_node_id":"0.0-193.0"},{"horizon":5,"rewards_L":[54,68,51,67,55],"rewards_R":[46,37,29,46,52],"key_presses":["arrowright","arrowleft","arrowleft","arrowright","arrowright"],"response_times":[239,216,225,20,173],"outcomes":[46,68,51,46,52],"screen_resolution":1,"trial_type":"horizons-trial","trial_index":198,"time_elapsed":708486,"internal_node_id":"0.0-194.0"},{"horizon":10,"rewards_L":[71,63,65,66,74,76,66,56,77,59],"rewards_R":[49,42,36,34,26,44,32,37,30,54],"key_presses":["arrowleft","arrowleft","arrowright","arrowleft","arrowleft","arrowright","arrowright","arrowright","arrowleft","arrowright"],"response_times":[200,225,56,231,184,25,205,206,202,9],"outcomes":[71,63,36,66,74,44,32,37,77,54],"screen_resolution":1,"trial_type":"horizons-trial","trial_index":199,"time_elapsed":710669,"internal_node_id":"0.0-195.0"},{"horizon":10,"rewards_L":[44,38,28,32,22,46,34,47,32,33],"rewards_R":[58,55,52,62,45,56,40,60,62,53],"key_presses":["arrowright","arrowleft","arrowleft","arrowright","arrowleft","arrowright","arrowleft","arrowright","arrowright","arrowleft"],"response_times":[258,204,214,25,204,11,195,25,190,20],"outcomes":[58,38,28,62,22,56,34,60,62,33],"screen_resolution":1,"trial_type":"horizons-trial","trial_index":200,"time_elapsed":712662,"internal_node_id":"0.0-196.0"},{"horizon":10,"rewards_L":[42,43,58,49,61,46,49,53,52,47],"rewards_R":[65,51,62,54,58,56,53,74,63,63],"key_presses":["arrowright","arrowright","arrowright","arrowleft","arrowleft","arrowleft","arrowright","arrowleft","arrowright","arrowleft"],"response_times":[19,222,200,11,216,227,41,227,8,205],"outcomes":[65,51,62,49,61,46,53,53,63,47],"screen_resolution":1,"trial_type":"horizons-trial","trial_index":201,"time_elapsed":714759,"internal_node_id":"0.0-197.0"},{"horizon":10,"rewards_L":[84,64,67,62,62,67,69,70,61,62],"rewards_R":[57,61,60,43,63,55,59,50,62,58],"key_presses":["arrowright","arrowleft","arrowright","arrowright","arrowright","arrowleft","arrowright","arrowleft","arrowright","arrowleft"],"response_times":[19,228,33,25,155,24,252,250,15,230],"outcomes":[57,64,60,43,63,67,59,70,62,62],"screen_resolution":1,"trial_type":"horizons-trial","trial_index":202,"time_elapsed":716726,"internal_node_id":"0.0-198.0"},{"horizon":10,"rewards_L":[45,45,66,56,46,55,49,65,69,74],"rewards_R":[93,88,93,77,92,96,79,94,92,98],"key_presses":["arrowright","arrowright","arrowleft","arrowright","arrowleft","arrowright","arrowleft","arrowright","arrowright","arrowleft"],"response_times":[24,466,20,222,238,20,462,11,203,10],"outcomes":[93,88,66,77,46,96,49,94,92,74],"screen_resolution":1,"trial_type":"horizons-trial","trial_index":203,"time_elapsed":719111,"internal_node_id":"0.0-199.0"},{"horizon":10,"rewards_L":[81,84,71,71,80,84,75,89,84,98],"rewards_R":[60,56,71,53,66,51,43,71,60,68],"key_presses":["arrowright","arrowleft","arrowleft","arrowright","arrowright","arrowleft","arrowleft","arrowright","arrowleft","arrowleft"],"response_times":[10,259,214,34,185,10,213,22,195,246],"outcomes":[60,84,71,53,66,84,75,71,84,98],"screen_resolution":1,"trial_type":"horizons-trial","trial_index":204,"time_elapsed":721232,"internal_node_id":"0.0-200.0"},{"horizon":5,"rewards_L":[31,34,25,24,50],"rewards_R":[58,68,71,44,57],"key_presses":["arrowleft","arrowleft","arrowright","arrowright","arrowleft"],"response_times":[355,230,16,232,203],"outcomes":[31,34,71,44,50],"screen_resolution":1,"trial_type":"horizons-trial","trial_index":205,"time_elapsed":722779,"internal_node_id":"0.0-201.0"},{"horizon":10,"rewards_L":[24,40,48,45,40,41,29,35,30,35],"rewards_R":[16,9,28,12,18,9,21,12,11,11],"key_presses":["arrowleft","arrowleft","arrowleft","arrowright","arrowleft","arrowright","arrowleft","arrowright","arrowleft","arrowright"],"response_times":[10,13977,221,186,20,182,10,176,28,165],"outcomes":[24,40,48,12,40,9,29,12,30,11],"screen_resolution":1,"trial_type":"horizons-trial","trial_index":206,"time_elapsed":738296,"internal_node_id":"0.0-202.0"},{"horizon":10,"rewards_L":[44,55,25,37,65,39,44,33,37,44],"rewards_R":[30,11,43,22,42,22,27,20,19,33],"key_presses":["arrowleft","arrowleft","arrowleft","arrowright","arrowleft","arrowleft","arrowright","arrowright","arrowleft","arrowleft"],"response_times":[252,216,230,25,165,220,20,211,16,186],"outcomes":[44,55,25,22,65,39,27,20,37,44],"screen_resolution":1,"trial_type":"horizons-trial","trial_index":207,"time_elapsed":740479,"internal_node_id":"0.0-203.0"},{"horizon":10,"rewards_L":[59,65,67,65,53,58,56,58,52,61],"rewards_R":[68,70,83,77,79,73,69,81,75,77],"key_presses":["arrowright","arrowleft","arrowright","arrowleft","arrowright","arrowleft","arrowright","arrowleft","arrowright","arrowright"],"response_times":[10,220,11,210,13,368,11,229,11,223],"outcomes":[68,65,83,65,79,58,69,58,75,77],"screen_resolution":1,"trial_type":"horizons-trial","trial_index":208,"time_elapsed":742305,"internal_node_id":"0.0-204.0"},{"horizon":10,"rewards_L":[67,68,76,60,62,72,70,68,58,72],"rewards_R":[64,64,51,60,79,68,52,76,59,68],"key_presses":["arrowleft","arrowleft","arrowright","arrowleft","arrowright","arrowright","arrowleft","arrowright","arrowleft","arrowright"],"response_times":[204,231,14,220,20,200,10,200,10,168],"outcomes":[67,68,51,60,79,68,70,76,58,68],"screen_resolution":1,"trial_type":"horizons-trial","trial_index":209,"time_elapsed":744257,"internal_node_id":"0.0-205.0"},{"horizon":5,"rewards_L":[28,19,32,24,41],"rewards_R":[44,37,46,36,47],"key_presses":["arrowleft","arrowleft","arrowright","arrowright","arrowright"],"response_times":[9,181,240,220,190],"outcomes":[28,19,46,36,47],"screen_resolution":1,"trial_type":"horizons-trial","trial_index":210,"time_elapsed":745746,"internal_node_id":"0.0-206.0"},{"horizon":10,"rewards_L":[56,50,64,50,54,62,61,59,77,46],"rewards_R":[67,58,47,50,50,57,47,50,46,41],"key_presses":["arrowleft","arrowleft","arrowright","arrowright","arrowleft","arrowright","arrowleft","arrowright","arrowright","arrowleft"],"response_times":[232,218,12,237,205,10,248,18,190,15],"outcomes":[56,50,47,50,54,57,61,50,46,46],"screen_resolution":1,"trial_type":"horizons-trial","trial_index":211,"time_elapsed":747792,"internal_node_id":"0.0-207.0"},{"horizon":5,"rewards_L":[38,26,31,46,40],"rewards_R":[11,28,2,19,20],"key_presses":["arrowleft","arrowleft","arrowright","arrowright","arrowright"],"response_times":[240,207,13,220,217],"outcomes":[38,26,2,19,20],"screen_resolution":1,"trial_type":"horizons-trial","trial_index":212,"time_elapsed":749201,"internal_node_id":"0.0-208.0"},{"horizon":10,"rewards_L":[2,3,23,17,7,14,6,0,6,12],"rewards_R":[49,37,55,48,46,40,42,41,41,59],"key_presses":["arrowright","arrowleft","arrowleft","arrowleft","arrowright","arrowleft","arrowleft","arrowright","arrowleft","arrowright"],"response_times":[13,220,215,235,15,200,255,45,222,11],"outcomes":[49,3,23,17,46,14,6,41,6,59],"screen_resolution":1,"trial_type":"horizons-trial","trial_index":213,"time_elapsed":751146,"internal_node_id":"0.0-209.0"},{"horizon":5,"rewards_L":[62,61,68,54,58],"rewards_R":[60,42,37,63,59],"key_presses":["arrowleft","arrowleft","arrowleft","arrowright","arrowleft"],"response_times":[280,296,234,10,215],"outcomes":[62,61,68,63,58],"screen_resolution":1,"trial_type":"horizons-trial","trial_index":214,"time_elapsed":752714,"internal_node_id":"0.0-210.0"},{"horizon":5,"rewards_L":[83,72,78,48,73],"rewards_R":[59,57,68,53,57],"key_presses":["arrowleft","arrowright","arrowright","arrowleft","arrowright"],"response_times":[179,441,270,20,855],"outcomes":[83,57,68,48,57],"screen_resolution":1,"trial_type":"horizons-trial","trial_index":215,"time_elapsed":755178,"internal_node_id":"0.0-211.0"},{"horizon":10,"rewards_L":[52,57,43,66,59,59,53,66,65,57],"rewards_R":[61,62,65,71,67,50,59,74,63,65],"key_presses":["arrowleft","arrowright","arrowleft","arrowleft","arrowleft","arrowright","arrowleft","arrowright","arrowleft","arrowright"],"response_times":[11,272,276,365,276,14,236,25,285,60],"outcomes":[52,62,43,66,59,50,53,74,65,65],"screen_resolution":1,"trial_type":"horizons-trial","trial_index":216,"time_elapsed":757534,"internal_node_id":"0.0-212.0"},{"horizon":5,"rewards_L":[61,68,48,43,49],"rewards_R":[87,60,75,67,58],"key_presses":["arrowright","arrowleft","arrowright","arrowleft","arrowright"],"response_times":[196,275,66,185,156],"outcomes":[87,68,75,43,58],"screen_resolution":1,"trial_type":"horizons-trial","trial_index":217,"time_elapsed":758953,"internal_node_id":"0.0-213.0"},{"horizon":5,"rewards_L":[20,14,0,12,27],"rewards_R":[49,30,52,46,40],"key_presses":["arrowright","arrowleft","arrowleft","arrowright","arrowleft"],"response_times":[173,10,167,130,38],"outcomes":[49,14,0,46,27],"screen_resolution":1,"trial_type":"horizons-trial","trial_index":218,"time_elapsed":760008,"internal_node_id":"0.0-214.0"},{"horizon":5,"rewards_L":[65,75,58,74,75],"rewards_R":[52,52,54,72,48],"key_presses":["arrowright","arrowleft","arrowright","arrowright","arrowleft"],"response_times":[140,230,10,216,188],"outcomes":[52,75,54,72,75],"screen_resolution":1,"trial_type":"horizons-trial","trial_index":219,"time_elapsed":761373,"internal_node_id":"0.0-215.0"},{"horizon":10,"rewards_L":[35,40,39,49,45,32,27,43,43,36],"rewards_R":[31,36,40,48,40,53,46,44,42,61],"key_presses":["arrowleft","arrowright","arrowright","arrowleft","arrowright","arrowright","arrowleft","arrowleft","arrowleft","arrowright"],"response_times":[853,130,193,168,14,136,40,214,196,14],"outcomes":[35,36,40,49,40,53,27,43,43,61],"screen_resolution":1,"trial_type":"horizons-trial","trial_index":220,"time_elapsed":763910,"internal_node_id":"0.0-216.0"},{"horizon":5,"rewards_L":[67,61,66,68,61],"rewards_R":[52,43,46,61,49],"key_presses":["arrowleft","arrowright","arrowleft","arrowright","arrowleft"],"response_times":[11,192,10,177,11],"outcomes":[67,43,66,61,61],"screen_resolution":1,"trial_type":"horizons-trial","trial_index":221,"time_elapsed":764911,"internal_node_id":"0.0-217.0"},{"horizon":5,"rewards_L":[56,43,39,35,42],"rewards_R":[67,78,54,58,62],"key_presses":["arrowright","arrowright","arrowleft","arrowleft","arrowleft"],"response_times":[213,218,233,195,215],"outcomes":[67,78,39,35,42],"screen_resolution":1,"trial_type":"horizons-trial","trial_index":222,"time_elapsed":766627,"internal_node_id":"0.0-218.0"},{"horizon":5,"rewards_L":[49,52,40,37,58],"rewards_R":[47,41,34,40,45],"key_presses":["arrowright","arrowleft","arrowright","arrowright","arrowleft"],"response_times":[10,291,157,209,55],"outcomes":[47,52,34,40,58],"screen_resolution":1,"trial_type":"horizons-trial","trial_index":223,"time_elapsed":767989,"internal_node_id":"0.0-219.0"},{"horizon":10,"rewards_L":[54,48,62,64,73,46,70,63,58,63],"rewards_R":[74,70,70,74,55,63,78,61,59,54],"key_presses":["arrowright","arrowright","arrowleft","arrowright","arrowleft","arrowright","arrowright","arrowleft","arrowright","arrowleft"],"response_times":[20,238,199,225,228,9,441,11,229,11],"outcomes":[74,70,62,74,73,63,78,63,59,63],"screen_resolution":1,"trial_type":"horizons-trial","trial_index":224,"time_elapsed":770879,"internal_node_id":"0.0-220.0"},{"horizon":5,"rewards_L":[63,72,63,64,56],"rewards_R":[55,59,65,73,52],"key_presses":["arrowleft","arrowright","arrowleft","arrowright","arrowleft"],"response_times":[264,1886,37,246,20],"outcomes":[63,59,63,73,56],"screen_resolution":1,"trial_type":"horizons-trial","trial_index":225,"time_elapsed":773997,"internal_node_id":"0.0-221.0"},{"horizon":10,"rewards_L":[96,88,81,93,89,97,100,97,89,95],"rewards_R":[51,56,78,49,58,48,64,58,51,57],"key_presses":["arrowleft","arrowleft","arrowright","arrowleft","arrowright","arrowleft","arrowright","arrowleft","arrowright","arrowleft"],"response_times":[1004,283,164,221,190,20,200,9,201,10],"outcomes":[96,88,78,93,58,97,64,97,51,95],"screen_resolution":1,"trial_type":"horizons-trial","trial_index":226,"time_elapsed":777015,"internal_node_id":"0.0-222.0"},{"horizon":5,"rewards_L":[43,54,51,74,55],"rewards_R":[79,84,79,72,67],"key_presses":["arrowleft","arrowright","arrowleft","arrowleft","arrowright"],"response_times":[176,280,211,540,161],"outcomes":[43,84,51,74,67],"screen_resolution":1,"trial_type":"horizons-trial","trial_index":227,"time_elapsed":778894,"internal_node_id":"0.0-223.0"},{"horizon":5,"rewards_L":[48,65,70,64,47],"rewards_R":[66,59,61,63,63],"key_presses":["arrowright","arrowleft","arrowright","arrowleft","arrowleft"],"response_times":[170,40,230,701,176],"outcomes":[66,65,61,64,47],"screen_resolution":1,"trial_type":"horizons-trial","trial_index":228,"time_elapsed":782169,"internal_node_id":"0.0-224.0"},{"horizon":10,"rewards_L":[62,59,51,52,56,69,75,59,61,73],"rewards_R":[62,65,58,51,80,65,54,62,53,60],"key_presses":["arrowleft","arrowright","arrowright","arrowleft","arrowright","arrowleft","arrowright","arrowleft","arrowleft","arrowright"],"response_times":[59,188,183,16,182,11,189,18,194,10],"outcomes":[62,65,58,52,80,69,54,59,61,60],"screen_resolution":1,"trial_type":"horizons-trial","trial_index":229,"time_elapsed":784121,"internal_node_id":"0.0-225.0"},{"horizon":10,"rewards_L":[34,42,57,58,40,43,47,39,56,41],"rewards_R":[59,56,67,56,49,43,52,50,52,53],"key_presses":["arrowright","arrowright","arrowleft","arrowleft","arrowright","arrowleft","arrowleft","arrowright","arrowright","arrowleft"],"response_times":[15,631,694,2010,175,10,1310,21,216,30],"outcomes":[59,56,57,58,49,43,47,50,52,41],"screen_resolution":1,"trial_type":"horizons-trial","trial_index":230,"time_elapsed":789866,"internal_node_id":"0.0-226.0"},{"horizon":10,"rewards_L":[45,42,42,37,51,41,39,33,48,43],"rewards_R":[20,25,8,6,22,19,27,15,14,6],"key_presses":["arrowright","arrowleft","arrowleft","arrowright","arrowleft","arrowright","arrowleft","arrowleft","arrowright","arrowright"],"response_times":[10,213,236,14,211,15,336,233,52,211],"outcomes":[20,42,42,6,51,19,39,33,14,6],"screen_resolution":1,"trial_type":"horizons-trial","trial_index":231,"time_elapsed":792112,"internal_node_id":"0.0-227.0"},{"horizon":5,"rewards_L":[59,65,61,55,60],"rewards_R":[33,48,40,42,34],"key_presses":["arrowleft","arrowleft","arrowleft","arrowright","arrowleft"],"response_times":[227,249,445,261,275],"outcomes":[59,65,61,42,60],"screen_resolution":1,"trial_type":"horizons-trial","trial_index":232,"time_elapsed":794250,"internal_node_id":"0.0-228.0"},{"horizon":10,"rewards_L":[49,38,55,52,47,40,47,44,52,57],"rewards_R":[58,66,59,38,68,64,66,56,52,55],"key_presses":["arrowright","arrowright","arrowright","arrowleft","arrowright","arrowleft","arrowright","arrowleft","arrowright","arrowleft"],"response_times":[710,441,214,20,190,26,200,20,215,27],"outcomes":[58,66,59,52,68,40,66,44,52,57],"screen_resolution":1,"trial_type":"horizons-trial","trial_index":233,"time_elapsed":796978,"internal_node_id":"0.0-229.0"},{"horizon":5,"rewards_L":[45,35,55,50,49],"rewards_R":[51,51,61,78,57],"key_presses":["arrowright","arrowleft","arrowleft","arrowright","arrowleft"],"response_times":[237,11,228,591,20],"outcomes":[51,35,55,78,49],"screen_resolution":1,"trial_type":"horizons-trial","trial_index":234,"time_elapsed":798577,"internal_node_id":"0.0-230.0"},{"horizon":10,"rewards_L":[50,27,50,37,43,55,38,49,27,55],"rewards_R":[61,72,74,79,75,90,64,73,66,64],"key_presses":["arrowleft","arrowright","arrowright","arrowleft","arrowright","arrowleft","arrowright","arrowleft","arrowright","arrowleft"],"response_times":[10,190,190,13,180,10,180,16,184,22],"outcomes":[50,72,74,37,75,55,64,49,66,55],"screen_resolution":1,"trial_type":"horizons-trial","trial_index":235,"time_elapsed":800163,"internal_node_id":"0.0-231.0"},{"horizon":5,"rewards_L":[61,53,53,61,66],"rewards_R":[99,92,98,87,87],"key_presses":["arrowright","arrowleft","arrowright","arrowleft","arrowleft"],"response_times":[207,11,182,10,206],"outcomes":[99,53,98,61,66],"screen_resolution":1,"trial_type":"horizons-trial","trial_index":236,"time_elapsed":801415,"internal_node_id":"0.0-232.0"},{"horizon":10,"rewards_L":[27,29,47,24,29,34,28,30,29,16],"rewards_R":[45,31,38,40,38,33,42,38,49,30],"key_presses":["arrowright","arrowright","arrowleft","arrowleft","arrowleft","arrowright","arrowright","arrowleft","arrowright","arrowleft"],"response_times":[209,207,11,180,193,30,191,10,200,10],"outcomes":[45,31,47,24,29,33,42,30,49,16],"screen_resolution":1,"trial_type":"horizons-trial","trial_index":237,"time_elapsed":803334,"internal_node_id":"0.0-233.0"},{"horizon":5,"rewards_L":[26,48,41,38,30],"rewards_R":[0,8,10,0,15],"key_presses":["arrowleft","arrowright","arrowright","arrowleft","arrowright"],"response_times":[10,278,156,9,226],"outcomes":[26,8,10,38,15],"screen_resolution":1,"trial_type":"horizons-trial","trial_index":238,"time_elapsed":804735,"internal_node_id":"0.0-234.0"},{"horizon":5,"rewards_L":[40,39,26,28,31],"rewards_R":[69,69,63,62,67],"key_presses":["arrowleft","arrowright","arrowleft","arrowleft","arrowright"],"response_times":[11,272,506,235,15],"outcomes":[40,69,26,28,67],"screen_resolution":1,"trial_type":"horizons-trial","trial_index":239,"time_elapsed":806300,"internal_node_id":"0.0-235.0"},{"horizon":10,"rewards_L":[63,63,65,56,59,43,64,50,51,63],"rewards_R":[49,50,54,39,50,58,46,45,41,61],"key_presses":["arrowright","arrowright","arrowleft","arrowleft","arrowright","arrowleft","arrowleft","arrowright","arrowright","arrowright"],"response_times":[200,260,11,290,156,110,402,10,278,230],"outcomes":[49,50,65,56,50,43,64,45,41,61],"screen_resolution":1,"trial_type":"horizons-trial","trial_index":240,"time_elapsed":808774,"internal_node_id":"0.0-236.0"},{"horizon":10,"rewards_L":[51,54,64,51,51,67,54,61,60,53],"rewards_R":[44,37,46,42,47,38,17,40,30,35],"key_presses":["arrowleft","arrowright","arrowright","arrowright","arrowright","arrowleft","arrowright","arrowleft","arrowleft","arrowright"],"response_times":[260,45,220,265,211,16,242,10,260,11],"outcomes":[51,37,46,42,47,67,17,61,60,35],"screen_resolution":1,"trial_type":"horizons-trial","trial_index":241,"time_elapsed":811027,"internal_node_id":"0.0-237.0"},{"horizon":5,"rewards_L":[52,84,69,70,63],"rewards_R":[36,29,50,36,52],"key_presses":["arrowleft","arrowleft","arrowright","arrowleft","arrowright"],"response_times":[9,230,268,303,30],"outcomes":[52,84,50,70,52],"screen_resolution":1,"trial_type":"horizons-trial","trial_index":242,"time_elapsed":812609,"internal_node_id":"0.0-238.0"},{"horizon":10,"rewards_L":[84,70,89,71,75,75,92,88,64,74],"rewards_R":[56,36,61,47,61,55,47,75,71,75],"key_presses":["arrowright","arrowleft","arrowright","arrowright","arrowright","arrowleft","arrowright","arrowleft","arrowright","arrowleft"],"response_times":[9,220,10,236,195,16,202,11,178,14],"outcomes":[56,70,61,47,61,75,47,88,71,74],"screen_resolution":1,"trial_type":"horizons-trial","trial_index":243,"time_elapsed":814331,"internal_node_id":"0.0-239.0"},{"horizon":10,"rewards_L":[32,35,41,51,45,34,41,41,42,39],"rewards_R":[43,45,46,53,37,46,54,40,36,54],"key_presses":["arrowright","arrowright","arrowleft","arrowright","arrowright","arrowleft","arrowright","arrowleft","arrowright","arrowleft"],"response_times":[225,205,10,197,219,45,135,20,160,40],"outcomes":[43,45,41,53,37,34,54,41,36,39],"screen_resolution":1,"trial_type":"horizons-trial","trial_index":244,"time_elapsed":816263,"internal_node_id":"0.0-240.0"},{"horizon":5,"rewards_L":[56,45,46,64,64],"rewards_R":[50,34,45,60,28],"key_presses":["arrowleft","arrowleft","arrowright","arrowleft","arrowleft"],"response_times":[10,237,11,228,218],"outcomes":[56,45,45,64,64],"screen_resolution":1,"trial_type":"horizons-trial","trial_index":245,"time_elapsed":817526,"internal_node_id":"0.0-241.0"},{"horizon":5,"rewards_L":[53,47,58,62,71],"rewards_R":[58,58,61,55,48],"key_presses":["arrowleft","arrowright","arrowleft","arrowright","arrowleft"],"response_times":[556,30,240,30,481],"outcomes":[53,58,58,55,71],"screen_resolution":1,"trial_type":"horizons-trial","trial_index":246,"time_elapsed":819551,"internal_node_id":"0.0-242.0"},{"horizon":5,"rewards_L":[21,49,44,43,41],"rewards_R":[44,62,57,70,64],"key_presses":["arrowright","arrowleft","arrowright","arrowleft","arrowright"],"response_times":[12,591,50,200,40],"outcomes":[44,49,57,43,64],"screen_resolution":1,"trial_type":"horizons-trial","trial_index":247,"time_elapsed":821190,"internal_node_id":"0.0-243.0"},{"horizon":5,"rewards_L":[74,75,80,75,68],"rewards_R":[55,57,66,63,54],"key_presses":["arrowright","arrowleft","arrowright","arrowright","arrowleft"],"response_times":[526,22,436,277,21],"outcomes":[55,75,66,63,68],"screen_resolution":1,"trial_type":"horizons-trial","trial_index":248,"time_elapsed":823222,"internal_node_id":"0.0-244.0"},{"horizon":5,"rewards_L":[35,35,38,24,33],"rewards_R":[12,31,28,41,10],"key_presses":["arrowleft","arrowright","arrowright","arrowright","arrowright"],"response_times":[255,211,211,262,198],"outcomes":[35,31,28,41,10],"screen_resolution":1,"trial_type":"horizons-tria