[{"success":true,"timeout":false,"failed_images":[],"failed_audio":[],"failed_video":[],"trial_type":"preload","trial_index":0,"time_elapsed":1422,"internal_node_id":"0.0-0.0"},{"success":true,"trial_type":"fullscreen","trial_index":1,"time_elapsed":10219,"internal_node_id":"0.0-1.0"},{"rt":7149,"stimulus":"<p>你将开始实验 実験を開始します<b>Horizons task.</b></p><p>查看说明请按 “1” 键，跳过说明请按 “2” 键。説明を見るには “1” キーを押してください。スキップするには “2” キーを押してください。</p>","response":"1","trial_type":"html-keyboard-response","trial_index":2,"time_elapsed":17368,"internal_node_id":"0.0-2.0"},{"view_history":[{"page_index":0,"viewing_time":34708},{"page_index":1,"viewing_time":8055},{"page_index":2,"viewing_time":15594},{"page_index":3,"viewing_time":7879},{"page_index":4,"viewing_time":4931},{"page_index":5,"viewing_time":5781},{"page_index":6,"viewing_time":5814},{"page_index":7,"viewing_time":7861},{"page_index":8,"viewing_time":10439},{"page_index":9,"viewing_time":13032}],"rt":114094,"trial_type":"instructions","trial_index":3,"time_elapsed":131463,"internal_node_id":"0.0-3.0-0.0"},{"horizon":5,"rewards_L":[44,57,74,72,62],"rewards_R":[31,33,24,39,29],"key_presses":["arrowright","arrowleft","arrowright","arrowright","arrowright"],"response_times":[1541,848,659,790,7263],"outcomes":[31,57,24,39,29],"screen_resolution":1,"phase":"practice","trial_type":"horizons-trial","trial_index":4,"time_elapsed":150596,"internal_node_id":"0.0-3.0-1.0"},{"horizon":10,"rewards_L":[64,50,57,35,52,38,44,61,39,38],"rewards_R":[70,69,76,71,75,58,81,84,57,61],"key_presses":["arrowleft","arrowleft","arrowright","arrowright","arrowright","arrowright","arrowright","arrowright","arrowright","arrowright"],"response_times":[1063,687,631,635,1818,923,1174,624,668,706],"outcomes":[64,50,76,71,75,58,81,84,57,61],"screen_resolution":1,"phase":"practice","trial_type":"horizons-trial","trial_index":5,"time_elapsed":164316,"internal_node_id":"0.0-3.0-2.0"},{"view_history":[{"page_index":0,"viewing_time":1647},{"page_index":1,"viewing_time":3401},{"page_index":2,"viewing_time":3648},{"page_index":3,"viewing_time":4678}],"rt":13374,"trial_type":"instructions","trial_index":6,"time_elapsed":177690,"internal_node_id":"0.0-3.0-3.0"},{"responses":["true","false","true"],"num_errors":0,"rt":149414.09999999986,"trial_type":"horizons-comprehension","trial_index":7,"time_elapsed":327105,"internal_node_id":"0.0-3.0-4.0"},{"view_history":[{"page_index":0,"viewing_time":2037},{"page_index":1,"viewing_time":2840}],"rt":4878,"trial_type":"instructions","trial_index":8,"time_elapsed":331984,"internal_node_id":"0.0-4.0"},{"horizon":5,"rewards_L":[62,53,41,54,57],"rewards_R":[44,45,51,40,42],"key_presses":["arrowright","arrowright","arrowleft","arrowleft","arrowleft"],"response_times":[1123,490,708,579,4714],"outcomes":[44,45,41,54,57],"screen_resolution":1,"trial_type":"horizons-trial","trial_index":9,"time_elapsed":342602,"internal_node_id":"0.0-5.0"},{"horizon":5,"rewards_L":[20,39,38,42,30],"rewards_R":[52,41,43,48,48],"key_presses":["arrowright","arrowleft","arrowleft","arrowright","arrowright"],"response_times":[764,471,540,546,1953],"outcomes":[52,39,38,48,48],"screen_resolution":1,"trial_type":"horizons-trial","trial_index":10,"time_elapsed":348392,"internal_node_id":"0.0-6.0"},{"horizon":5,"rewards_L":[24,26,40,26,23],"rewards_R":[35,45,70,36,43],"key_presses":["arrowleft","arrowright","arrowright","arrowleft","arrowright"],"response_times":[672,507,597,690,833],"outcomes":[24,45,70,26,43],"screen_resolution":1,"trial_type":"horizons-trial","trial_index":11,"time_elapsed":353395,"internal_node_id":"0.0-7.0"},{"horizon":10,"rewards_L":[23,39,46,36,28,44,44,32,38,30],"rewards_R":[39,51,55,37,37,31,32,39,36,49],"key_presses":["arrowright","arrowleft","arrowleft","arrowright","arrowleft","arrowright","arrowright","arrowleft","arrowleft","arrowright"],"response_times":[860,453,632,558,2669,2847,1002,1362,1019,18153],"outcomes":[39,39,46,37,28,31,32,32,38,49],"screen_resolution":1,"trial_type":"horizons-trial","trial_index":12,"time_elapsed":384091,"internal_node_id":"0.0-8.0"},{"horizon":5,"rewards_L":[22,28,28,29,42],"rewards_R":[39,44,41,39,31],"key_presses":["arrowright","arrowright","arrowright","arrowleft","arrowright"],"response_times":[2472,340,639,1070,3663],"outcomes":[39,44,41,29,31],"screen_resolution":1,"trial_type":"horizons-trial","trial_index":13,"time_elapsed":393593,"internal_node_id":"0.0-9.0"},{"horizon":10,"rewards_L":[63,65,53,63,70,55,79,83,67,71],"rewards_R":[70,53,58,62,69,70,60,67,71,55],"key_presses":["arrowright","arrowleft","arrowright","arrowleft","arrowleft","arrowleft","arrowright","arrowright","arrowright","arrowright"],"response_times":[626,621,444,464,3793,750,1357,1885,2215,2055],"outcomes":[70,65,58,63,70,55,60,67,71,55],"screen_resolution":1,"trial_type":"horizons-trial","trial_index":14,"time_elapsed":408642,"internal_node_id":"0.0-10.0"},{"horizon":10,"rewards_L":[56,60,54,54,42,53,43,51,46,36],"rewards_R":[54,40,44,28,28,48,32,39,42,39],"key_presses":["arrowright","arrowleft","arrowright","arrowright","arrowleft","arrowleft","arrowleft","arrowright","arrowright","arrowleft"],"response_times":[676,488,412,568,1677,676,6229,1326,1434,605],"outcomes":[54,60,44,28,42,53,43,39,42,36],"screen_resolution":1,"trial_type":"horizons-trial","trial_index":15,"time_elapsed":425403,"internal_node_id":"0.0-11.0"},{"horizon":10,"rewards_L":[49,59,36,68,53,63,62,44,61,45],"rewards_R":[48,50,34,34,40,44,26,36,36,35],"key_presses":["arrowleft","arrowleft","arrowleft","arrowright","arrowright","arrowright","arrowright","arrowleft","arrowleft","arrowleft"],"response_times":[732,314,394,568,957,836,1913,438,955,1156],"outcomes":[49,59,36,34,40,44,26,44,61,45],"screen_resolution":1,"trial_type":"horizons-trial","trial_index":16,"time_elapsed":434636,"internal_node_id":"0.0-12.0"},{"horizon":10,"rewards_L":[49,28,40,37,55,60,39,44,34,37],"rewards_R":[39,42,48,34,41,42,40,51,54,41],"key_presses":["arrowright","arrowleft","arrowright","arrowright","arrowleft","arrowleft","arrowleft","arrowleft","arrowright","arrowleft"],"response_times":[624,1299,513,545,1181,670,1477,744,1601,7178],"outcomes":[39,28,48,34,55,60,39,44,54,37],"screen_resolution":1,"trial_type":"horizons-trial","trial_index":17,"time_elapsed":451385,"internal_node_id":"0.0-13.0"},{"horizon":10,"rewards_L":[62,53,78,77,57,81,61,65,65,75],"rewards_R":[38,38,45,48,35,36,46,58,46,35],"key_presses":["arrowleft","arrowleft","arrowright","arrowright","arrowleft","arrowright","arrowleft","arrowleft","arrowleft","arrowleft"],"response_times":[741,334,575,452,962,434,612,768,710,699],"outcomes":[62,53,45,48,57,36,61,65,65,75],"screen_resolution":1,"trial_type":"horizons-trial","trial_index":18,"time_elapsed":458919,"internal_node_id":"0.0-14.0"},{"horizon":5,"rewards_L":[63,64,84,70,59],"rewards_R":[43,55,37,51,43],"key_presses":["arrowright","arrowleft","arrowleft","arrowright","arrowleft"],"response_times":[674,498,480,450,861],"outcomes":[43,64,84,51,59],"screen_resolution":1,"trial_type":"horizons-trial","trial_index":19,"time_elapsed":462783,"internal_node_id":"0.0-15.0"},{"horizon":10,"rewards_L":[38,42,41,27,35,36,38,38,40,46],"rewards_R":[38,47,40,62,56,47,50,39,45,44],"key_presses":["arrowleft","arrowright","arrowleft","arrowleft","arrowright","arrowleft","arrowright","arrowleft","arrowleft","arrowright"],"response_times":[673,523,266,460,457,447,494,606,3781,867],"outcomes":[38,47,41,27,56,36,50,38,40,44],"screen_resolution":1,"trial_type":"horizons-trial","trial_index":20,"time_elapsed":472722,"internal_node_id":"0.0-16.0"},{"horizon":10,"rewards_L":[35,48,42,50,35,26,37,28,13,33],"rewards_R":[35,51,51,49,52,34,44,31,49,53],"key_presses":["arrowleft","arrowright","arrowright","arrowleft","arrowright","arrowleft","arrowright","arrowright","arrowleft","arrowright"],"response_times":[697,665,662,1348,674,2434,560,978,1618,2878],"outcomes":[35,51,51,50,52,26,44,31,13,53],"screen_resolution":1,"trial_type":"horizons-trial","trial_index":21,"time_elapsed":485941,"internal_node_id":"0.0-17.0"},{"horizon":10,"rewards_L":[53,37,41,45,28,35,16,38,46,25],"rewards_R":[50,63,47,62,59,55,62,54,62,56],"key_presses":["arrowright","arrowleft","arrowleft","arrowleft","arrowright","arrowleft","arrowright","arrowleft","arrowright","arrowright"],"response_times":[557,594,506,517,571,579,528,902,542,911],"outcomes":[50,37,41,45,59,35,62,38,62,56],"screen_resolution":1,"trial_type":"horizons-trial","trial_index":22,"time_elapsed":492872,"internal_node_id":"0.0-18.0"},{"horizon":10,"rewards_L":[58,21,36,25,36,32,36,46,49,31],"rewards_R":[40,46,51,47,34,34,57,54,36,54],"key_presses":["arrowleft","arrowright","arrowleft","arrowright","arrowleft","arrowright","arrowleft","arrowright","arrowleft","arrowright"],"response_times":[607,765,333,341,820,399,576,427,1084,4572],"outcomes":[58,46,36,47,36,34,36,54,49,54],"screen_resolution":1,"trial_type":"horizons-trial","trial_index":23,"time_elapsed":503885,"internal_node_id":"0.0-19.0"},{"horizon":10,"rewards_L":[56,53,60,65,55,67,59,74,41,49],"rewards_R":[67,63,72,51,54,75,67,57,63,60],"key_presses":["arrowright","arrowright","arrowright","arrowleft","arrowleft","arrowleft","arrowleft","arrowright","arrowright","arrowright"],"response_times":[584,652,385,589,390,420,516,2019,979,10683],"outcomes":[67,63,72,65,55,67,59,57,63,60],"screen_resolution":1,"trial_type":"horizons-trial","trial_index":24,"time_elapsed":522437,"internal_node_id":"0.0-20.0"},{"horizon":10,"rewards_L":[42,64,65,49,41,45,49,49,44,49],"rewards_R":[37,51,30,45,36,34,44,43,39,32],"key_presses":["arrowleft","arrowleft","arrowright","arrowright","arrowleft","arrowright","arrowleft","arrowright","arrowleft","arrowleft"],"response_times":[662,275,473,492,348,464,391,328,495,27724],"outcomes":[42,64,30,45,41,34,49,43,44,49],"screen_resolution":1,"trial_type":"horizons-trial","trial_index":25,"time_elapsed":555905,"internal_node_id":"0.0-21.0"},{"horizon":10,"rewards_L":[63,73,62,54,65,62,70,60,66,75],"rewards_R":[33,37,25,18,27,42,28,20,41,40],"key_presses":["arrowleft","arrowleft","arrowleft","arrowright","arrowleft","arrowright","arrowleft","arrowright","arrowleft","arrowleft"],"response_times":[613,327,332,446,1133,655,638,503,661,405],"outcomes":[63,73,62,18,65,42,70,20,66,75],"screen_resolution":1,"trial_type":"horizons-trial","trial_index":26,"time_elapsed":562270,"internal_node_id":"0.0-22.0"},{"horizon":10,"rewards_L":[46,40,36,42,35,30,39,48,53,58],"rewards_R":[38,49,41,44,46,46,51,47,28,22],"key_presses":["arrowright","arrowleft","arrowright","arrowleft","arrowright","arrowleft","arrowright","arrowleft","arrowright","arrowright"],"response_times":[608,357,325,381,424,424,486,300,6368,4435],"outcomes":[38,40,41,42,46,30,51,48,28,22],"screen_resolution":1,"trial_type":"horizons-trial","trial_index":27,"time_elapsed":577040,"internal_node_id":"0.0-23.0"},{"horizon":5,"rewards_L":[27,40,39,33,48],"rewards_R":[55,52,64,53,69],"key_presses":["arrowright","arrowright","arrowright","arrowleft","arrowright"],"response_times":[707,443,425,406,658],"outcomes":[55,52,64,33,69],"screen_resolution":1,"trial_type":"horizons-trial","trial_index":28,"time_elapsed":580218,"internal_node_id":"0.0-24.0"},{"horizon":10,"rewards_L":[55,64,52,56,56,68,47,60,61,67],"rewards_R":[74,66,74,76,67,73,73,77,73,72],"key_presses":["arrowright","arrowright","arrowleft","arrowright","arrowleft","arrowright","arrowleft","arrowright","arrowleft","arrowright"],"response_times":[578,319,476,336,1037,531,582,585,1097,530],"outcomes":[74,66,52,76,56,73,47,77,61,72],"screen_resolution":1,"trial_type":"horizons-trial","trial_index":29,"time_elapsed":586891,"internal_node_id":"0.0-25.0"},{"horizon":5,"rewards_L":[21,22,13,26,15],"rewards_R":[46,42,32,29,46],"key_presses":["arrowright","arrowright","arrowright","arrowleft","arrowright"],"response_times":[539,532,374,516,2516],"outcomes":[46,42,32,26,46],"screen_resolution":1,"trial_type":"horizons-trial","trial_index":30,"time_elapsed":592014,"internal_node_id":"0.0-26.0"},{"horizon":10,"rewards_L":[51,57,43,50,39,53,51,56,36,46],"rewards_R":[43,39,36,37,32,34,53,37,42,58],"key_presses":["arrowleft","arrowleft","arrowright","arrowleft","arrowright","arrowleft","arrowright","arrowleft","arrowright","arrowleft"],"response_times":[807,304,474,326,305,530,277,353,203,4312],"outcomes":[51,57,36,50,32,53,53,56,42,46],"screen_resolution":1,"trial_type":"horizons-trial","trial_index":31,"time_elapsed":600447,"internal_node_id":"0.0-27.0"},{"horizon":5,"rewards_L":[50,46,44,44,25],"rewards_R":[50,53,56,58,72],"key_presses":["arrowright","arrowright","arrowleft","arrowleft","arrowright"],"response_times":[630,606,347,724,1482],"outcomes":[50,53,44,44,72],"screen_resolution":1,"trial_type":"horizons-trial","trial_index":32,"time_elapsed":604932,"internal_node_id":"0.0-28.0"},{"horizon":5,"rewards_L":[36,33,48,55,46],"rewards_R":[15,2,15,6,23],"key_presses":["arrowright","arrowleft","arrowleft","arrowright","arrowleft"],"response_times":[648,508,435,411,1229],"outcomes":[15,33,48,6,46],"screen_resolution":1,"trial_type":"horizons-trial","trial_index":33,"time_elapsed":609790,"internal_node_id":"0.0-29.0"},{"horizon":10,"rewards_L":[11,24,31,25,13,19,22,43,7,26],"rewards_R":[41,40,59,33,40,38,59,34,32,52],"key_presses":["arrowleft","arrowright","arrowright","arrowleft","arrowleft","arrowright","arrowleft","arrowright","arrowleft","arrowright"],"response_times":[607,721,632,685,1159,631,563,491,3070,1507],"outcomes":[11,40,59,25,13,38,22,34,7,52],"screen_resolution":1,"trial_type":"horizons-trial","trial_index":34,"time_elapsed":621250,"internal_node_id":"0.0-30.0"},{"horizon":10,"rewards_L":[39,18,24,33,38,17,24,46,39,43],"rewards_R":[35,44,43,49,27,46,44,45,36,40],"key_presses":["arrowright","arrowright","arrowright","arrowleft","arrowright","arrowleft","arrowright","arrowleft","arrowright","arrowright"],"response_times":[603,387,530,553,430,400,321,335,223,3226],"outcomes":[35,44,43,33,27,17,44,46,36,40],"screen_resolution":1,"trial_type":"horizons-trial","trial_index":35,"time_elapsed":629125,"internal_node_id":"0.0-31.0"},{"horizon":5,"rewards_L":[64,63,55,43,54],"rewards_R":[49,56,55,62,67],"key_presses":["arrowright","arrowright","arrowleft","arrowleft","arrowleft"],"response_times":[586,366,495,730,1425],"outcomes":[49,56,55,43,54],"screen_resolution":1,"trial_type":"horizons-trial","trial_index":36,"time_elapsed":634140,"internal_node_id":"0.0-32.0"},{"horizon":10,"rewards_L":[30,36,39,39,36,43,50,36,34,33],"rewards_R":[46,36,48,31,29,39,27,43,29,32],"key_presses":["arrowleft","arrowright","arrowright","arrowleft","arrowright","arrowleft","arrowright","arrowleft","arrowright","arrowleft"],"response_times":[1134,287,509,517,250,565,293,314,272,15025],"outcomes":[30,36,48,39,29,43,27,36,29,33],"screen_resolution":1,"trial_type":"horizons-trial","trial_index":37,"time_elapsed":654475,"internal_node_id":"0.0-33.0"},{"horizon":5,"rewards_L":[43,42,38,31,39],"rewards_R":[12,28,20,18,9],"key_presses":["arrowleft","arrowright","arrowleft","arrowright","arrowleft"],"response_times":[686,364,250,168,1097],"outcomes":[43,28,38,18,39],"screen_resolution":1,"trial_type":"horizons-trial","trial_index":38,"time_elapsed":657755,"internal_node_id":"0.0-34.0"},{"horizon":5,"rewards_L":[37,37,48,44,61],"rewards_R":[31,35,28,34,36],"key_presses":["arrowright","arrowleft","arrowleft","arrowright","arrowleft"],"response_times":[570,174,578,414,378],"outcomes":[31,37,48,34,61],"screen_resolution":1,"trial_type":"horizons-trial","trial_index":39,"time_elapsed":660854,"internal_node_id":"0.0-35.0"},{"horizon":10,"rewards_L":[45,55,47,43,38,36,28,38,44,34],"rewards_R":[66,64,60,38,74,76,60,66,48,57],"key_presses":["arrowright","arrowright","arrowright","arrowleft","arrowright","arrowright","arrowright","arrowleft","arrowright","arrowright"],"response_times":[632,488,360,420,305,443,391,341,573,821],"outcomes":[66,64,60,43,74,76,60,38,48,57],"screen_resolution":1,"trial_type":"horizons-trial","trial_index":40,"time_elapsed":666939,"internal_node_id":"0.0-36.0"},{"horizon":10,"rewards_L":[27,39,43,32,20,43,32,44,35,32],"rewards_R":[10,9,9,12,0,4,1,2,17,9],"key_presses":["arrowright","arrowleft","arrowright","arrowleft","arrowright","arrowleft","arrowright","arrowright","arrowleft","arrowleft"],"response_times":[578,382,204,272,173,214,102,521,610,614],"outcomes":[10,39,9,32,0,43,1,2,35,32],"screen_resolution":1,"trial_type":"horizons-trial","trial_index":41,"time_elapsed":671405,"internal_node_id":"0.0-37.0"},{"horizon":10,"rewards_L":[40,34,45,43,49,53,38,50,32,42],"rewards_R":[28,36,33,42,24,36,43,9,23,30],"key_presses":["arrowright","arrowleft","arrowright","arrowleft","arrowright","arrowleft","arrowright","arrowright","arrowleft","arrowleft"],"response_times":[598,209,176,214,219,159,144,672,598,1232],"outcomes":[28,34,33,43,24,53,43,9,32,42],"screen_resolution":1,"trial_type":"horizons-trial","trial_index":42,"time_elapsed":678788,"internal_node_id":"0.0-38.0"},{"horizon":10,"rewards_L":[39,46,41,36,35,37,41,30,49,39],"rewards_R":[51,44,40,32,37,37,44,53,34,51],"key_presses":["arrowright","arrowleft","arrowleft","arrowleft","arrowright","arrowleft","arrowright","arrowleft","arrowright","arrowleft"],"response_times":[535,221,390,578,449,174,172,614,1150,12548],"outcomes":[51,46,41,36,37,37,44,30,34,39],"screen_resolution":1,"trial_type":"horizons-trial","trial_index":43,"time_elapsed":696656,"internal_node_id":"0.0-39.0"},{"horizon":10,"rewards_L":[37,33,44,41,58,49,39,45,50,34],"rewards_R":[25,34,37,40,38,40,36,49,34,36],"key_presses":["arrowleft","arrowright","arrowright","arrowright","arrowleft","arrowright","arrowleft","arrowright","arrowleft","arrowright"],"response_times":[685,242,435,320,362,186,208,121,170,3271],"outcomes":[37,34,37,40,58,40,39,49,50,36],"screen_resolution":1,"trial_type":"horizons-trial","trial_index":44,"time_elapsed":703377,"internal_node_id":"0.0-40.0"},{"horizon":5,"rewards_L":[79,80,86,90,87],"rewards_R":[52,75,55,61,59],"key_presses":["arrowleft","arrowright","arrowleft","arrowright","arrowleft"],"response_times":[539,259,304,436,1091],"outcomes":[79,75,86,61,87],"screen_resolution":1,"trial_type":"horizons-trial","trial_index":45,"time_elapsed":706776,"internal_node_id":"0.0-41.0"},{"horizon":10,"rewards_L":[46,45,40,44,44,33,38,34,51,34],"rewards_R":[48,56,52,58,61,49,59,59,42,49],"key_presses":["arrowright","arrowleft","arrowright","arrowleft","arrowright","arrowleft","arrowright","arrowleft","arrowright","arrowright"],"response_times":[635,220,171,207,122,186,85,724,394,3384],"outcomes":[48,45,52,44,61,33,59,34,42,49],"screen_resolution":1,"trial_type":"horizons-trial","trial_index":46,"time_elapsed":713406,"internal_node_id":"0.0-42.0"},{"horizon":10,"rewards_L":[70,85,84,83,69,79,91,77,83,93],"rewards_R":[54,73,61,58,63,60,66,57,56,66],"key_presses":["arrowleft","arrowright","arrowright","arrowleft","arrowright","arrowleft","arrowright","arrowleft","arrowright","arrowleft"],"response_times":[573,125,280,173,81,131,104,645,396,1608],"outcomes":[70,73,61,83,63,79,66,77,56,93],"screen_resolution":1,"trial_type":"horizons-trial","trial_index":47,"time_elapsed":718356,"internal_node_id":"0.0-43.0"},{"horizon":5,"rewards_L":[57,60,61,80,48],"rewards_R":[57,65,57,75,60],"key_presses":["arrowleft","arrowright","arrowright","arrowleft","arrowleft"],"response_times":[528,173,706,348,1074],"outcomes":[57,65,57,80,48],"screen_resolution":1,"trial_type":"horizons-trial","trial_index":48,"time_elapsed":722360,"internal_node_id":"0.0-44.0"},{"horizon":5,"rewards_L":[40,34,32,41,45],"rewards_R":[35,40,40,43,36],"key_presses":["arrowleft","arrowleft","arrowright","arrowleft","arrowright"],"response_times":[894,571,415,422,3584],"outcomes":[40,34,40,41,36],"screen_resolution":1,"trial_type":"horizons-trial","trial_index":49,"time_elapsed":729156,"internal_node_id":"0.0-45.0"},{"horizon":5,"rewards_L":[56,55,52,35,47],"rewards_R":[27,36,24,36,48],"key_presses":["arrowright","arrowleft","arrowright","arrowleft","arrowleft"],"response_times":[723,239,212,585,612],"outcomes":[27,55,24,35,47],"screen_resolution":1,"trial_type":"horizons-trial","trial_index":50,"time_elapsed":733667,"internal_node_id":"0.0-46.0"},{"horizon":10,"rewards_L":[66,54,63,64,61,51,65,50,63,63],"rewards_R":[79,69,74,86,71,86,67,72,77,73],"key_presses":["arrowright","arrowright","arrowleft","arrowright","arrowleft","arrowright","arrowleft","arrowright","arrowleft","arrowright"],"response_times":[673,528,346,148,222,81,173,108,945,2230],"outcomes":[79,69,63,86,61,86,65,72,63,73],"screen_resolution":1,"trial_type":"horizons-trial","trial_index":51,"time_elapsed":739682,"internal_node_id":"0.0-47.0"},{"horizon":5,"rewards_L":[29,35,28,52,30],"rewards_R":[70,64,62,52,73],"key_presses":["arrowright","arrowleft","arrowleft","arrowleft","arrowright"],"response_times":[686,316,644,737,1341],"outcomes":[70,35,28,52,73],"screen_resolution":1,"trial_type":"horizons-trial","trial_index":52,"time_elapsed":744066,"internal_node_id":"0.0-48.0"},{"horizon":10,"rewards_L":[34,40,33,19,24,30,27,28,32,35],"rewards_R":[43,44,36,38,52,53,45,39,31,26],"key_presses":["arrowright","arrowleft","arrowright","arrowleft","arrowright","arrowleft","arrowright","arrowleft","arrowright","arrowright"],"response_times":[757,242,166,219,95,184,81,155,1333,14489],"outcomes":[43,40,36,19,52,30,45,28,31,26],"screen_resolution":1,"trial_type":"horizons-trial","trial_index":53,"time_elapsed":762383,"internal_node_id":"0.0-49.0"},{"horizon":10,"rewards_L":[42,34,40,44,55,49,54,31,56,55],"rewards_R":[36,52,42,43,42,51,32,36,41,30],"key_presses":["arrowleft","arrowright","arrowleft","arrowright","arrowleft","arrowright","arrowleft","arrowright","arrowleft","arrowleft"],"response_times":[605,149,182,84,137,84,254,170,979,3272],"outcomes":[42,52,40,43,55,51,54,36,56,55],"screen_resolution":1,"trial_type":"horizons-trial","trial_index":54,"time_elapsed":769416,"internal_node_id":"0.0-50.0"},{"horizon":10,"rewards_L":[35,50,48,46,48,53,54,33,50,45],"rewards_R":[44,44,47,49,55,40,34,32,29,42],"key_presses":["arrowright","arrowright","arrowleft","arrowleft","arrowright","arrowleft","arrowright","arrowleft","arrowright","arrowleft"],"response_times":[617,322,244,365,91,162,123,873,742,1726],"outcomes":[44,44,48,46,55,53,34,33,29,45],"screen_resolution":1,"trial_type":"horizons-trial","trial_index":55,"time_elapsed":776675,"internal_node_id":"0.0-51.0"},{"horizon":5,"rewards_L":[82,90,83,76,91],"rewards_R":[68,56,52,68,65],"key_presses":["arrowright","arrowleft","arrowleft","arrowright","arrowleft"],"response_times":[523,172,697,459,516],"outcomes":[68,90,83,68,91],"screen_resolution":1,"trial_type":"horizons-trial","trial_index":56,"time_elapsed":779594,"internal_node_id":"0.0-52.0"},{"horizon":5,"rewards_L":[71,68,63,45,48],"rewards_R":[59,45,72,69,55],"key_presses":["arrowright","arrowright","arrowleft","arrowleft","arrowleft"],"response_times":[542,557,303,467,1286],"outcomes":[59,45,63,45,48],"screen_resolution":1,"trial_type":"horizons-trial","trial_index":57,"time_elapsed":783712,"internal_node_id":"0.0-53.0"},{"horizon":5,"rewards_L":[49,46,32,36,29],"rewards_R":[75,71,59,84,60],"key_presses":["arrowleft","arrowright","arrowleft","arrowright","arrowright"],"response_times":[765,244,239,186,671],"outcomes":[49,71,32,84,60],"screen_resolution":1,"trial_type":"horizons-trial","trial_index":58,"time_elapsed":786547,"internal_node_id":"0.0-54.0"},{"horizon":5,"rewards_L":[59,67,67,60,50],"rewards_R":[36,61,39,30,45],"key_presses":["arrowleft","arrowright","arrowright","arrowright","arrowleft"],"response_times":[555,194,722,630,2185],"outcomes":[59,61,39,30,50],"screen_resolution":1,"trial_type":"horizons-trial","trial_index":59,"time_elapsed":791474,"internal_node_id":"0.0-55.0"},{"horizon":10,"rewards_L":[75,67,63,55,51,62,41,55,52,57],"rewards_R":[37,38,48,26,37,12,54,46,31,26],"key_presses":["arrowleft","arrowright","arrowleft","arrowright","arrowleft","arrowright","arrowleft","arrowright","arrowleft","arrowleft"],"response_times":[659,290,196,129,210,118,718,168,2629,2238],"outcomes":[75,38,63,26,51,12,41,46,52,57],"screen_resolution":1,"trial_type":"horizons-trial","trial_index":60,"time_elapsed":799612,"internal_node_id":"0.0-56.0"},{"horizon":10,"rewards_L":[22,7,18,20,20,23,17,18,16,14],"rewards_R":[29,47,37,34,57,37,20,28,23,48],"key_presses":["arrowright","arrowleft","arrowleft","arrowleft","arrowright","arrowleft","arrowright","arrowleft","arrowright","arrowright"],"response_times":[617,192,561,431,301,221,160,204,1288,3400],"outcomes":[29,7,18,20,57,23,20,18,23,48],"screen_resolution":1,"trial_type":"horizons-trial","trial_index":61,"time_elapsed":807881,"internal_node_id":"0.0-57.0"},{"horizon":5,"rewards_L":[63,55,55,51,54],"rewards_R":[51,45,39,43,54],"key_presses":["arrowleft","arrowright","arrowright","arrowright","arrowleft"],"response_times":[617,169,966,579,340],"outcomes":[63,45,39,43,54],"screen_resolution":1,"trial_type":"horizons-trial","trial_index":62,"time_elapsed":811605,"internal_node_id":"0.0-58.0"},{"horizon":10,"rewards_L":[29,30,22,31,32,39,29,32,33,29],"rewards_R":[49,38,25,41,36,38,41,46,36,43],"key_presses":["arrowleft","arrowright","arrowleft","arrowright","arrowleft","arrowright","arrowleft","arrowright","arrowleft","arrowright"],"response_times":[707,158,204,117,205,250,235,140,1692,1278],"outcomes":[29,38,22,41,32,38,29,46,33,43],"screen_resolution":1,"trial_type":"horizons-trial","trial_index":63,"time_elapsed":817126,"internal_node_id":"0.0-59.0"},{"horizon":10,"rewards_L":[63,73,71,75,56,58,69,74,61,53],"rewards_R":[52,56,57,51,60,66,59,54,65,61],"key_presses":["arrowright","arrowleft","arrowright","arrowright","arrowleft","arrowright","arrowleft","arrowleft","arrowright","arrowleft"],"response_times":[1066,239,138,240,136,96,171,856,613,552],"outcomes":[52,73,57,51,56,66,69,74,65,53],"screen_resolution":1,"trial_type":"horizons-trial","trial_index":64,"time_elapsed":821881,"internal_node_id":"0.0-60.0"},{"horizon":10,"rewards_L":[49,29,40,24,48,49,43,48,30,45],"rewards_R":[24,21,49,29,38,32,38,27,23,15],"key_presses":["arrowleft","arrowleft","arrowright","arrowright","arrowleft","arrowright","arrowleft","arrowright","arrowleft","arrowleft"],"response_times":[799,572,246,368,336,128,663,143,1019,3371],"outcomes":[49,29,49,29,48,32,43,27,30,45],"screen_resolution":1,"trial_type":"horizons-trial","trial_index":65,"time_elapsed":830389,"internal_node_id":"0.0-61.0"},{"horizon":5,"rewards_L":[54,37,49,54,48],"rewards_R":[65,72,50,50,60],"key_presses":["arrowright","arrowright","arrowright","arrowleft","arrowright"],"response_times":[493,447,666,466,910],"outcomes":[65,72,50,54,60],"screen_resolution":1,"trial_type":"horizons-trial","trial_index":66,"time_elapsed":833988,"internal_node_id":"0.0-62.0"},{"horizon":10,"rewards_L":[36,32,37,28,20,30,10,30,31,10],"rewards_R":[50,45,47,24,45,47,37,49,34,37],"key_presses":["arrowright","arrowleft","arrowleft","arrowleft","arrowright","arrowleft","arrowright","arrowleft","arrowright","arrowright"],"response_times":[521,213,509,461,207,212,105,197,933,5574],"outcomes":[50,32,37,28,45,30,37,30,34,37],"screen_resolution":1,"trial_type":"horizons-trial","trial_index":67,"time_elapsed":843461,"internal_node_id":"0.0-63.0"},{"horizon":10,"rewards_L":[35,23,28,25,21,35,20,12,24,31],"rewards_R":[37,30,17,53,45,38,47,39,36,19],"key_presses":["arrowleft","arrowleft","arrowright","arrowright","arrowleft","arrowright","arrowleft","arrowright","arrowleft","arrowright"],"response_times":[452,349,336,216,202,122,157,97,1096,3601],"outcomes":[35,23,17,53,21,38,20,39,24,19],"screen_resolution":1,"trial_type":"horizons-trial","trial_index":68,"time_elapsed":850643,"internal_node_id":"0.0-64.0"},{"horizon":5,"rewards_L":[23,20,23,21,34],"rewards_R":[32,47,47,45,43],"key_presses":["arrowright","arrowleft","arrowright","arrowleft","arrowright"],"response_times":[744,173,86,144,125],"outcomes":[32,20,47,21,43],"screen_resolution":1,"trial_type":"horizons-trial","trial_index":69,"time_elapsed":853445,"internal_node_id":"0.0-65.0"},{"horizon":5,"rewards_L":[57,67,54,69,57],"rewards_R":[63,60,52,50,60],"key_presses":["arrowleft","arrowleft","arrowright","arrowleft","arrowleft"],"response_times":[636,552,391,446,569],"outcomes":[57,67,52,69,57],"screen_resolution":1,"trial_type":"horizons-trial","trial_index":70,"time_elapsed":856680,"internal_node_id":"0.0-66.0"},{"horizon":5,"rewards_L":[50,41,41,59,57],"rewards_R":[50,50,29,46,37],"key_presses":["arrowleft","arrowright","arrowleft","arrowright","arrowright"],"response_times":[593,313,245,514,2101],"outcomes":[50,50,41,46,37],"screen_resolution":1,"trial_type":"horizons-trial","trial_index":71,"time_elapsed":861007,"internal_node_id":"0.0-67.0"},{"horizon":10,"rewards_L":[59,59,56,61,59,59,65,48,48,42],"rewards_R":[41,41,51,48,45,49,31,41,41,46],"key_presses":["arrowleft","arrowleft","arrowright","arrowleft","arrowright","arrowleft","arrowright","arrowleft","arrowright","arrowleft"],"response_times":[550,384,231,200,100,201,85,180,875,1418],"outcomes":[59,59,51,61,45,59,31,48,41,42],"screen_resolution":1,"trial_type":"horizons-trial","trial_index":72,"time_elapsed":866163,"internal_node_id":"0.0-68.0"},{"horizon":10,"rewards_L":[42,45,28,19,20,33,39,16,42,16],"rewards_R":[41,40,43,39,37,51,36,36,39,36],"key_presses":["arrowright","arrowright","arrowright","arrowleft","arrowright","arrowleft","arrowright","arrowleft","arrowright","arrowright"],"response_times":[468,367,299,173,159,169,134,716,2238,4543],"outcomes":[41,40,43,19,37,33,36,16,39,36],"screen_resolution":1,"trial_type":"horizons-trial","trial_index":73,"time_elapsed":876264,"internal_node_id":"0.0-69.0"},{"horizon":10,"rewards_L":[67,65,57,73,60,57,62,58,48,63],"rewards_R":[61,51,49,48,47,47,54,58,53,49],"key_presses":["arrowleft","arrowright","arrowright","arrowright","arrowleft","arrowright","arrowleft","arrowleft","arrowleft","arrowleft"],"response_times":[606,118,300,334,398,170,249,1061,1955,802],"outcomes":[67,51,49,48,60,47,62,58,48,63],"screen_resolution":1,"trial_type":"horizons-trial","trial_index":74,"time_elapsed":882883,"internal_node_id":"0.0-70.0"},{"horizon":10,"rewards_L":[65,70,66,58,74,67,71,57,55,60],"rewards_R":[58,61,51,63,60,50,38,65,68,65],"key_presses":["arrowleft","arrowleft","arrowleft","arrowright","arrowright","arrowright","arrowleft","arrowright","arrowleft","arrowleft"],"response_times":[644,371,318,398,205,251,625,144,1017,3150],"outcomes":[65,70,66,63,60,50,71,65,55,60],"screen_resolution":1,"trial_type":"horizons-trial","trial_index":75,"time_elapsed":890622,"internal_node_id":"0.0-71.0"},{"horizon":10,"rewards_L":[68,57,70,69,43,46,62,67,70,50],"rewards_R":[41,55,66,52,59,55,52,54,56,47],"key_presses":["arrowleft","arrowright","arrowleft","arrowright","arrowleft","arrowright","arrowleft","arrowright","arrowleft","arrowleft"],"response_times":[481,156,182,112,143,63,547,273,1219,1387],"outcomes":[68,55,70,52,43,55,62,54,70,50],"screen_resolution":1,"trial_type":"horizons-trial","trial_index":76,"time_elapsed":895998,"internal_node_id":"0.0-72.0"},{"horizon":10,"rewards_L":[45,49,49,38,41,51,40,41,54,51],"rewards_R":[66,56,53,62,64,47,62,58,70,59],"key_presses":["arrowright","arrowleft","arrowleft","arrowleft","arrowright","arrowleft","arrowright","arrowright","arrowright","arrowright"],"response_times":[712,191,319,295,120,313,678,489,1903,878],"outcomes":[66,49,49,38,64,51,62,58,70,59],"screen_resolution":1,"trial_type":"horizons-trial","trial_index":77,"time_elapsed":902642,"internal_node_id":"0.0-73.0"},{"horizon":5,"rewards_L":[21,32,54,25,32],"rewards_R":[59,60,81,59,60],"key_presses":["arrowright","arrowright","arrowright","arrowleft","arrowright"],"response_times":[567,419,516,287,780],"outcomes":[59,60,81,25,60],"screen_resolution":1,"trial_type":"horizons-trial","trial_index":78,"time_elapsed":906004,"internal_node_id":"0.0-74.0"},{"horizon":5,"rewards_L":[23,24,38,20,26],"rewards_R":[67,43,61,52,50],"key_presses":["arrowleft","arrowright","arrowleft","arrowright","arrowright"],"response_times":[656,229,254,211,1143],"outcomes":[23,43,38,52,50],"screen_resolution":1,"trial_type":"horizons-trial","trial_index":79,"time_elapsed":909878,"internal_node_id":"0.0-75.0"},{"horizon":5,"rewards_L":[51,56,61,63,62],"rewards_R":[41,48,56,42,44],"key_presses":["arrowleft","arrowright","arrowright","arrowleft","arrowright"],"response_times":[551,203,582,526,3305],"outcomes":[51,48,56,63,44],"screen_resolution":1,"trial_type":"horizons-trial","trial_index":80,"time_elapsed":915594,"internal_node_id":"0.0-76.0"},{"horizon":5,"rewards_L":[52,52,65,66,51],"rewards_R":[84,70,60,74,82],"key_presses":["arrowleft","arrowright","arrowleft","arrowright","arrowright"],"response_times":[536,192,211,117,1270],"outcomes":[52,70,65,74,82],"screen_resolution":1,"trial_type":"horizons-trial","trial_index":81,"time_elapsed":918839,"internal_node_id":"0.0-77.0"},{"horizon":5,"rewards_L":[37,30,36,47,43],"rewards_R":[37,38,35,34,25],"key_presses":["arrowleft","arrowright","arrowright","arrowright","arrowright"],"response_times":[434,164,607,605,1571],"outcomes":[37,38,35,34,25],"screen_resolution":1,"trial_type":"horizons-trial","trial_index":82,"time_elapsed":923172,"internal_node_id":"0.0-78.0"},{"horizon":10,"rewards_L":[46,47,42,50,47,39,37,48,39,45],"rewards_R":[40,57,34,39,32,28,36,28,26,33],"key_presses":["arrowleft","arrowleft","arrowleft","arrowright","arrowleft","arrowright","arrowright","arrowleft","arrowright","arrowleft"],"response_times":[583,354,335,466,209,154,253,366,151,1977],"outcomes":[46,47,42,39,47,28,36,48,26,45],"screen_resolution":1,"trial_type":"horizons-trial","trial_index":83,"time_elapsed":930487,"internal_node_id":"0.0-79.0"},{"horizon":5,"rewards_L":[58,39,47,42,43],"rewards_R":[53,42,50,41,60],"key_presses":["arrowright","arrowleft","arrowright","arrowright","arrowright"],"response_times":[552,186,153,768,688],"outcomes":[53,39,50,41,60],"screen_resolution":1,"trial_type":"horizons-trial","trial_index":84,"time_elapsed":933352,"internal_node_id":"0.0-80.0"},{"horizon":5,"rewards_L":[33,59,47,30,31],"rewards_R":[25,38,55,18,43],"key_presses":["arrowleft","arrowleft","arrowright","arrowright","arrowleft"],"response_times":[613,356,325,749,1740],"outcomes":[33,59,55,18,31],"screen_resolution":1,"trial_type":"horizons-trial","trial_index":85,"time_elapsed":937683,"internal_node_id":"0.0-81.0"},{"horizon":10,"rewards_L":[27,19,21,32,37,18,19,45,36,34],"rewards_R":[58,55,70,80,59,64,45,60,77,66],"key_presses":["arrowright","arrowleft","arrowleft","arrowright","arrowleft","arrowright","arrowleft","arrowright","arrowright","arrowright"],"response_times":[513,259,299,142,171,115,160,115,801,666],"outcomes":[58,19,21,80,37,64,19,60,77,66],"screen_resolution":1,"trial_type":"horizons-trial","trial_index":86,"time_elapsed":942023,"internal_node_id":"0.0-82.0"},{"horizon":5,"rewards_L":[56,49,67,80,57],"rewards_R":[57,53,65,61,48],"key_presses":["arrowleft","arrowleft","arrowleft","arrowright","arrowleft"],"response_times":[825,390,369,540,260],"outcomes":[56,49,67,61,57],"screen_resolution":1,"trial_type":"horizons-trial","trial_index":87,"time_elapsed":945910,"internal_node_id":"0.0-83.0"},{"horizon":5,"rewards_L":[44,31,36,46,50],"rewards_R":[39,25,21,34,40],"key_presses":["arrowright","arrowright","arrowleft","arrowleft","arrowleft"],"response_times":[541,562,373,443,1392],"outcomes":[39,25,36,46,50],"screen_resolution":1,"trial_type":"horizons-trial","trial_index":88,"time_elapsed":950410,"internal_node_id":"0.0-84.0"},{"horizon":5,"rewards_L":[52,34,25,41,41],"rewards_R":[17,19,22,24,27],"key_presses":["arrowleft","arrowleft","arrowleft","arrowright","arrowleft"],"response_times":[641,302,858,503,896],"outcomes":[52,34,25,24,41],"screen_resolution":1,"trial_type":"horizons-trial","trial_index":89,"time_elapsed":954318,"internal_node_id":"0.0-85.0"},{"horizon":5,"rewards_L":[42,48,33,43,48],"rewards_R":[31,18,30,29,26],"key_presses":["arrowleft","arrowright","arrowright","arrowright","arrowleft"],"response_times":[464,525,731,527,1535],"outcomes":[42,18,30,29,48],"screen_resolution":1,"trial_type":"horizons-trial","trial_index":90,"time_elapsed":958691,"internal_node_id":"0.0-86.0"},{"horizon":5,"rewards_L":[54,40,49,44,36],"rewards_R":[33,45,36,45,51],"key_presses":["arrowright","arrowleft","arrowright","arrowleft","arrowleft"],"response_times":[570,304,237,213,875],"outcomes":[33,40,36,44,36],"screen_resolution":1,"trial_type":"horizons-trial","trial_index":91,"time_elapsed":961749,"internal_node_id":"0.0-87.0"},{"horizon":10,"rewards_L":[36,39,35,40,47,30,39,30,41,40],"rewards_R":[86,68,65,80,66,81,54,67,85,82],"key_presses":["arrowright","arrowleft","arrowleft","arrowright","arrowleft","arrowright","arrowleft","arrowright","arrowright","arrowright"],"response_times":[546,193,336,141,198,108,170,103,1311,304],"outcomes":[86,39,35,80,47,81,39,67,85,82],"screen_resolution":1,"trial_type":"horizons-trial","trial_index":92,"time_elapsed":967464,"internal_node_id":"0.0-88.0"},{"horizon":5,"rewards_L":[75,54,64,62,62],"rewards_R":[64,74,80,70,66],"key_presses":["arrowleft","arrowleft","arrowright","arrowright","arrowright"],"response_times":[664,490,274,798,944],"outcomes":[75,54,80,70,66],"screen_resolution":1,"trial_type":"horizons-trial","trial_index":93,"time_elapsed":971319,"internal_node_id":"0.0-89.0"},{"horizon":10,"rewards_L":[31,36,29,38,38,39,31,39,46,40],"rewards_R":[3,28,0,13,19,15,21,3,18,0],"key_presses":["arrowleft","arrowright","arrowright","arrowright","arrowright","arrowleft","arrowright","arrowleft","arrowright","arrowleft"],"response_times":[622,157,309,303,404,601,159,953,785,770],"outcomes":[31,28,0,13,19,39,21,39,18,40],"screen_resolution":1,"trial_type":"horizons-trial","trial_index":94,"time_elapsed":977090,"internal_node_id":"0.0-90.0"},{"horizon":5,"rewards_L":[54,64,62,65,70],"rewards_R":[35,51,50,47,53],"key_presses":["arrowleft","arrowleft","arrowleft","arrowright","arrowleft"],"response_times":[661,368,804,418,613],"outcomes":[54,64,62,47,70],"screen_resolution":1,"trial_type":"horizons-trial","trial_index":95,"time_elapsed":980574,"internal_node_id":"0.0-91.0"},{"horizon":5,"rewards_L":[64,60,59,56,44],"rewards_R":[76,82,71,88,70],"key_presses":["arrowright","arrowleft","arrowleft","arrowright","arrowright"],"response_times":[509,693,736,475,564],"outcomes":[76,60,59,88,70],"screen_resolution":1,"trial_type":"horizons-trial","trial_index":96,"time_elapsed":984153,"internal_node_id":"0.0-92.0"},{"horizon":10,"rewards_L":[49,42,43,36,41,41,30,32,19,32],"rewards_R":[26,23,14,23,11,19,26,29,29,6],"key_presses":["arrowleft","arrowleft","arrowleft","arrowright","arrowright","arrowright","arrowleft","arrowleft","arrowleft","arrowleft"],"response_times":[602,395,331,560,261,370,396,536,748,215],"outcomes":[49,42,43,23,11,19,30,32,19,32],"screen_resolution":1,"trial_type":"horizons-trial","trial_index":97,"time_elapsed":991889,"internal_node_id":"0.0-93.0"},{"horizon":5,"rewards_L":[45,52,50,56,70],"rewards_R":[48,31,29,40,24],"key_presses":["arrowleft","arrowleft","arrowright","arrowright","arrowleft"],"response_times":[579,346,342,698,2158],"outcomes":[45,52,29,40,70],"screen_resolution":1,"trial_type":"horizons-trial","trial_index":98,"time_elapsed":996562,"internal_node_id":"0.0-94.0"},{"horizon":10,"rewards_L":[43,55,68,59,37,56,54,55,54,51],"rewards_R":[57,60,51,61,63,51,53,51,51,62],"key_presses":["arrowleft","arrowright","arrowright","arrowleft","arrowright","arrowleft","arrowright","arrowright","arrowleft","arrowright"],"response_times":[581,434,425,403,300,290,205,1077,576,986],"outcomes":[43,60,51,59,63,56,53,51,54,62],"screen_resolution":1,"trial_type":"horizons-trial","trial_index":99,"time_elapsed":1002606,"internal_node_id":"0.0-95.0"},{"horizon":5,"rewards_L":[67,69,80,66,79],"rewards_R":[58,55,56,57,59],"key_presses":["arrowright","arrowleft","arrowright","arrowleft","arrowleft"],"response_times":[574,224,238,240,624],"outcomes":[58,69,56,66,79],"screen_resolution":1,"trial_type":"horizons-trial","trial_index":100,"time_elapsed":1005867,"internal_node_id":"0.0-96.0"},{"horizon":5,"rewards_L":[60,58,82,73,67],"rewards_R":[26,42,39,32,24],"key_presses":["arrowleft","arrowright","arrowright","arrowright","arrowleft"],"response_times":[824,234,851,935,580],"outcomes":[60,42,39,32,67],"screen_resolution":1,"trial_type":"horizons-trial","trial_index":101,"time_elapsed":1009823,"internal_node_id":"0.0-97.0"},{"horizon":10,"rewards_L":[34,22,35,41,31,28,24,39,31,44],"rewards_R":[37,72,68,55,59,65,68,62,69,56],"key_presses":["arrowright","arrowright","arrowright","arrowleft","arrowright","arrowleft","arrowright","arrowleft","arrowright","arrowright"],"response_times":[498,568,440,600,248,477,223,1065,473,668],"outcomes":[37,72,68,41,59,28,68,39,69,56],"screen_resolution":1,"trial_type":"horizons-trial","trial_index":102,"time_elapsed":1015631,"internal_node_id":"0.0-98.0"},{"horizon":10,"rewards_L":[48,52,58,55,56,54,77,57,54,60],"rewards_R":[82,81,68,81,85,75,65,66,78,90],"key_presses":["arrowright","arrowleft","arrowleft","arrowright","arrowleft","arrowright","arrowleft","arrowright","arrowleft","arrowright"],"response_times":[529,250,508,422,274,213,409,242,774,1214],"outcomes":[82,52,58,81,56,75,77,66,54,90],"screen_resolution":1,"trial_type":"horizons-trial","trial_index":103,"time_elapsed":1021375,"internal_node_id":"0.0-99.0"},{"horizon":5,"rewards_L":[64,52,64,69,58],"rewards_R":[42,42,24,55,44],"key_presses":["arrowright","arrowright","arrowleft","arrowleft","arrowleft"],"response_times":[463,576,568,622,933],"outcomes":[42,42,64,69,58],"screen_resolution":1,"trial_type":"horizons-trial","trial_index":104,"time_elapsed":1025143,"internal_node_id":"0.0-100.0"},{"horizon":10,"rewards_L":[61,53,48,62,47,53,56,52,57,52],"rewards_R":[33,39,34,30,35,38,40,40,48,38],"key_presses":["arrowright","arrowleft","arrowright","arrowright","arrowleft","arrowright","arrowleft","arrowright","arrowleft","arrowleft"],"response_times":[560,322,439,800,419,290,447,186,928,1590],"outcomes":[33,53,34,30,47,38,56,40,57,52],"screen_resolution":1,"trial_type":"horizons-trial","trial_index":105,"time_elapsed":1032146,"internal_node_id":"0.0-101.0"},{"horizon":10,"rewards_L":[66,65,57,64,56,61,63,52,67,76],"rewards_R":[74,70,82,78,68,77,68,64,78,89],"key_presses":["arrowleft","arrowright","arrowright","arrowleft","arrowright","arrowleft","arrowright","arrowleft","arrowright","arrowright"],"response_times":[633,272,512,448,158,574,165,608,145,934],"outcomes":[66,70,82,64,68,61,68,52,78,89],"screen_resolution":1,"trial_type":"horizons-trial","trial_index":106,"time_elapsed":1037176,"internal_node_id":"0.0-102.0"},{"horizon":10,"rewards_L":[58,59,57,50,54,54,61,62,46,74],"rewards_R":[66,80,86,97,84,70,80,71,79,89],"key_presses":["arrowleft","arrowright","arrowleft","arrowleft","arrowright","arrowleft","arrowright","arrowleft","arrowright","arrowright"],"response_times":[408,199,263,585,342,222,145,210,93,512],"outcomes":[58,80,57,50,84,54,80,62,79,89],"screen_resolution":1,"trial_type":"horizons-trial","trial_index":107,"time_elapsed":1040794,"internal_node_id":"0.0-103.0"},{"horizon":5,"rewards_L":[100,81,79,84,91],"rewards_R":[64,53,72,52,51],"key_presses":["arrowleft","arrowright","arrowright","arrowleft","arrowleft"],"response_times":[244,237,440,1026,533],"outcomes":[100,53,72,84,91],"screen_resolution":1,"trial_type":"horizons-trial","trial_index":108,"time_elapsed":1044061,"internal_node_id":"0.0-104.0"},{"horizon":10,"rewards_L":[100,100,84,91,98,81,87,80,90,97],"rewards_R":[68,61,74,60,54,68,64,70,67,65],"key_presses":["arrowright","arrowleft","arrowright","arrowright","arrowleft","arrowright","arrowleft","arrowright","arrowleft","arrowleft"],"response_times":[468,220,198,486,358,234,432,344,426,517],"outcomes":[68,100,74,60,98,68,87,70,90,97],"screen_resolution":1,"trial_type":"horizons-trial","trial_index":109,"time_elapsed":1048788,"internal_node_id":"0.0-105.0"},{"horizon":10,"rewards_L":[39,46,41,35,45,35,33,42,47,42],"rewards_R":[29,27,18,30,34,34,26,22,40,18],"key_presses":["arrowright","arrowright","arrowleft","arrowleft","arrowright","arrowleft","arrowright","arrowleft","arrowright","arrowleft"],"response_times":[609,547,1082,814,359,462,263,304,292,2481],"outcomes":[29,27,41,35,34,35,26,42,40,42],"screen_resolution":1,"trial_type":"horizons-trial","trial_index":110,"time_elapsed":1056725,"internal_node_id":"0.0-106.0"},{"horizon":5,"rewards_L":[31,50,32,40,40],"rewards_R":[68,64,55,70,63],"key_presses":["arrowright","arrowright","arrowleft","arrowright","arrowright"],"response_times":[577,473,287,154,837],"outcomes":[68,64,32,70,63],"screen_resolution":1,"trial_type":"horizons-trial","trial_index":111,"time_elapsed":1059557,"internal_node_id":"0.0-107.0"},{"horizon":5,"rewards_L":[79,87,63,74,83],"rewards_R":[63,70,52,61,59],"key_presses":["arrowleft","arrowleft","arrowright","arrowleft","arrowleft"],"response_times":[318,445,533,264,519],"outcomes":[79,87,52,74,83],"screen_resolution":1,"trial_type":"horizons-trial","trial_index":112,"time_elapsed":1062144,"internal_node_id":"0.0-108.0"},{"horizon":10,"rewards_L":[62,62,62,71,62,57,55,55,76,66],"rewards_R":[52,62,59,56,38,59,63,48,49,55],"key_presses":["arrowright","arrowleft","arrowright","arrowleft","arrowright","arrowleft","arrowright","arrowleft","arrowright","arrowleft"],"response_times":[524,227,228,234,97,224,174,533,174,1773],"outcomes":[52,62,59,71,38,57,63,55,49,66],"screen_resolution":1,"trial_type":"horizons-trial","trial_index":113,"time_elapsed":1066973,"internal_node_id":"0.0-109.0"},{"horizon":5,"rewards_L":[21,33,44,28,39],"rewards_R":[46,35,36,34,50],"key_presses":["arrowleft","arrowright","arrowleft","arrowright","arrowright"],"response_times":[650,190,234,110,1603],"outcomes":[21,35,44,34,50],"screen_resolution":1,"trial_type":"horizons-trial","trial_index":114,"time_elapsed":1070311,"internal_node_id":"0.0-110.0"},{"horizon":10,"rewards_L":[37,30,46,36,41,34,39,35,50,40],"rewards_R":[58,59,50,49,70,45,60,51,59,65],"key_presses":["arrowleft","arrowright","arrowleft","arrowleft","arrowright","arrowright","arrowleft","arrowright","arrowleft","arrowright"],"response_times":[547,154,158,242,66,234,153,86,944,429],"outcomes":[37,59,46,36,70,45,39,51,50,65],"screen_resolution":1,"trial_type":"horizons-trial","trial_index":115,"time_elapsed":1074531,"internal_node_id":"0.0-111.0"},{"horizon":5,"rewards_L":[55,45,45,38,44],"rewards_R":[60,69,59,51,61],"key_presses":["arrowleft","arrowright","arrowright","arrowleft","arrowright"],"response_times":[406,143,275,730,514],"outcomes":[55,69,59,38,61],"screen_resolution":1,"trial_type":"horizons-trial","trial_index":116,"time_elapsed":1078284,"internal_node_id":"0.0-112.0"},{"horizon":5,"rewards_L":[47,46,53,55,37],"rewards_R":[54,50,50,55,56],"key_presses":["arrowright","arrowright","arrowright","arrowleft","arrowright"],"response_times":[583,366,632,634,2301],"outcomes":[54,50,50,55,56],"screen_resolution":1,"trial_type":"horizons-trial","trial_index":117,"time_elapsed":1083403,"internal_node_id":"0.0-113.0"},{"horizon":5,"rewards_L":[33,38,44,27,31],"rewards_R":[62,47,49,47,58],"key_presses":["arrowright","arrowleft","arrowleft","arrowleft","arrowright"],"response_times":[427,309,402,1140,853],"outcomes":[62,38,44,27,58],"screen_resolution":1,"trial_type":"horizons-trial","trial_index":118,"time_elapsed":1087384,"internal_node_id":"0.0-114.0"},{"horizon":10,"rewards_L":[51,52,52,60,59,58,59,69,49,64],"rewards_R":[43,41,47,36,52,44,36,45,43,40],"key_presses":["arrowright","arrowright","arrowleft","arrowleft","arrowright","arrowleft","arrowright","arrowleft","arrowright","arrowleft"],"response_times":[686,388,226,522,304,436,162,569,130,3809],"outcomes":[43,41,52,60,52,58,36,69,43,64],"screen_resolution":1,"trial_type":"horizons-trial","trial_index":119,"time_elapsed":1095362,"internal_node_id":"0.0-115.0"},{"horizon":5,"rewards_L":[52,53,56,52,58],"rewards_R":[77,75,75,66,75],"key_presses":["arrowleft","arrowright","arrowleft","arrowleft","arrowright"],"response_times":[577,132,234,966,936],"outcomes":[52,75,56,52,75],"screen_resolution":1,"trial_type":"horizons-trial","trial_index":120,"time_elapsed":1101769,"internal_node_id":"0.0-116.0"},{"horizon":10,"rewards_L":[80,78,87,66,88,86,82,82,83,86],"rewards_R":[56,55,55,54,53,65,64,62,63,53],"key_presses":["arrowleft","arrowleft","arrowright","arrowleft","arrowright","arrowleft","arrowright","arrowleft","arrowleft","arrowleft"],"response_times":[816,540,208,182,103,171,85,174,1641,461],"outcomes":[80,78,55,66,53,86,64,82,83,86],"screen_resolution":1,"trial_type":"horizons-trial","trial_index":121,"time_elapsed":1107486,"internal_node_id":"0.0-117.0"},{"horizon":10,"rewards_L":[28,46,27,51,43,45,33,44,41,47],"rewards_R":[32,20,20,38,24,29,30,27,18,25],"key_presses":["arrowleft","arrowright","arrowleft","arrowright","arrowleft","arrowright","arrowleft","arrowright","arrowleft","arrowleft"],"response_times":[826,250,234,120,179,127,658,184,1129,2951],"outcomes":[28,20,27,38,43,29,33,27,41,47],"screen_resolution":1,"trial_type":"horizons-trial","trial_index":122,"time_elapsed":1114961,"internal_node_id":"0.0-118.0"},{"horizon":10,"rewards_L":[70,44,57,48,41,57,65,71,55,43],"rewards_R":[54,56,66,61,53,54,65,56,58,61],"key_presses":["arrowleft","arrowleft","arrowright","arrowright","arrowleft","arrowright","arrowleft","arrowright","arrowleft","arrowright"],"response_times":[410,369,107,265,164,64,265,116,1086,3354],"outcomes":[70,44,66,61,41,54,65,56,55,61],"screen_resolution":1,"trial_type":"horizons-trial","trial_index":123,"time_elapsed":1122024,"internal_node_id":"0.0-119.0"},{"horizon":10,"rewards_L":[61,57,64,67,45,62,55,61,59,61],"rewards_R":[35,34,33,34,29,36,22,24,25,20],"key_presses":["arrowright","arrowleft","arrowleft","arrowright","arrowleft","arrowright","arrowleft","arrowright","arrowleft","arrowleft"],"response_times":[330,299,318,48,204,98,187,724,410,1096],"outcomes":[35,57,64,34,45,36,55,24,59,61],"screen_resolution":1,"trial_type":"horizons-trial","trial_index":124,"time_elapsed":1127531,"internal_node_id":"0.0-120.0"},{"horizon":10,"rewards_L":[32,37,24,40,50,41,35,39,49,33],"rewards_R":[65,64,44,68,70,58,62,63,69,49],"key_presses":["arrowleft","arrowright","arrowleft","arrowright","arrowleft","arrowright","arrowleft","arrowright","arrowleft","arrowright"],"response_times":[741,219,206,69,183,115,572,146,1632,2106],"outcomes":[32,64,24,68,50,58,35,63,49,49],"screen_resolution":1,"trial_type":"horizons-trial","trial_index":125,"time_elapsed":1134966,"internal_node_id":"0.0-121.0"},{"horizon":10,"rewards_L":[50,40,43,31,39,58,33,42,36,39],"rewards_R":[41,58,37,49,39,30,36,40,38,40],"key_presses":["arrowleft","arrowright","arrowleft","arrowleft","arrowright","arrowleft","arrowright","arrowleft","arrowright","arrowleft"],"response_times":[572,151,191,276,62,203,82,1087,326,4437],"outcomes":[50,58,43,31,39,58,36,42,38,39],"screen_resolution":1,"trial_type":"horizons-trial","trial_index":126,"time_elapsed":1143324,"internal_node_id":"0.0-122.0"},{"horizon":5,"rewards_L":[34,52,42,47,41],"rewards_R":[49,58,41,39,53],"key_presses":["arrowleft","arrowleft","arrowright","arrowright","arrowleft"],"response_times":[671,540,586,859,2686],"outcomes":[34,52,41,39,41],"screen_resolution":1,"trial_type":"horizons-trial","trial_index":127,"time_elapsed":1149554,"internal_node_id":"0.0-123.0"},{"horizon":5,"rewards_L":[71,82,78,71,50],"rewards_R":[37,50,42,47,33],"key_presses":["arrowright","arrowright","arrowleft","arrowleft","arrowleft"],"response_times":[569,500,454,651,900],"outcomes":[37,50,78,71,50],"screen_resolution":1,"trial_type":"horizons-trial","trial_index":128,"time_elapsed":1153371,"internal_node_id":"0.0-124.0"},{"horizon":5,"rewards_L":[24,17,44,39,36],"rewards_R":[16,3,5,24,7],"key_presses":["arrowleft","arrowleft","arrowleft","arrowright","arrowleft"],"response_times":[740,409,528,410,2132],"outcomes":[24,17,44,24,36],"screen_resolution":1,"trial_type":"horizons-trial","trial_index":129,"time_elapsed":1158265,"internal_node_id":"0.0-125.0"},{"horizon":5,"rewards_L":[38,31,39,36,51],"rewards_R":[0,5,19,1,0],"key_presses":["arrowleft","arrowright","arrowright","arrowright","arrowleft"],"response_times":[438,379,552,616,519],"outcomes":[38,5,19,1,51],"screen_resolution":1,"trial_type":"horizons-trial","trial_index":130,"time_elapsed":1161435,"internal_node_id":"0.0-126.0"},{"horizon":10,"rewards_L":[33,35,37,24,64,42,43,36,39,37],"rewards_R":[31,28,39,33,50,25,36,30,43,35],"key_presses":["arrowright","arrowright","arrowright","arrowleft","arrowright","arrowleft","arrowright","arrowleft","arrowright","arrowright"],"response_times":[590,489,307,443,287,298,212,234,176,1104],"outcomes":[31,28,39,24,50,42,36,36,43,35],"screen_resolution":1,"trial_type":"horizons-trial","trial_index":131,"time_elapsed":1166244,"internal_node_id":"0.0-127.0"},{"horizon":10,"rewards_L":[40,40,46,47,42,31,27,50,35,38],"rewards_R":[56,57,58,55,71,55,51,49,66,67],"key_presses":["arrowleft","arrowleft","arrowright","arrowright","arrowleft","arrowright","arrowleft","arrowright","arrowleft","arrowright"],"response_times":[620,404,246,271,166,73,341,803,235,6572],"outcomes":[40,40,58,55,42,55,27,49,35,67],"screen_resolution":1,"trial_type":"horizons-trial","trial_index":132,"time_elapsed":1176609,"internal_node_id":"0.0-128.0"},{"horizon":10,"rewards_L":[10,12,12,7,3,17,8,12,12,14],"rewards_R":[31,45,32,32,41,36,33,32,41,38],"key_presses":["arrowright","arrowright","arrowright","arrowleft","arrowright","arrowleft","arrowright","arrowright","arrowright","arrowright"],"response_times":[573,469,381,218,103,182,117,451,403,243],"outcomes":[31,45,32,7,41,17,33,32,41,38],"screen_resolution":1,"trial_type":"horizons-trial","trial_index":133,"time_elapsed":1180619,"internal_node_id":"0.0-129.0"},{"horizon":5,"rewards_L":[23,29,30,27,41],"rewards_R":[40,44,55,39,41],"key_presses":["arrowright","arrowright","arrowright","arrowleft","arrowright"],"response_times":[462,339,591,417,867],"outcomes":[40,44,55,27,41],"screen_resolution":1,"trial_type":"horizons-trial","trial_index":134,"time_elapsed":1184481,"internal_node_id":"0.0-130.0"},{"horizon":10,"rewards_L":[68,56,65,54,52,62,66,54,59,53],"rewards_R":[35,36,39,64,55,45,28,43,47,34],"key_presses":["arrowleft","arrowleft","arrowright","arrowleft","arrowright","arrowleft","arrowright","arrowleft","arrowright","arrowleft"],"response_times":[829,406,315,140,169,193,67,626,128,1086],"outcomes":[68,56,39,54,55,62,28,54,47,53],"screen_resolution":1,"trial_type":"horizons-trial","trial_index":135,"time_elapsed":1189335,"internal_node_id":"0.0-131.0"},{"horizon":10,"rewards_L":[54,72,61,38,61,52,55,65,71,55],"rewards_R":[82,86,83,88,81,94,83,84,96,95],"key_presses":["arrowleft","arrowright","arrowleft","arrowleft","arrowright","arrowleft","arrowright","arrowleft","arrowright","arrowright"],"response_times":[743,215,159,228,70,147,93,632,204,498],"outcomes":[54,86,61,38,81,52,83,65,96,95],"screen_resolution":1,"trial_type":"horizons-trial","trial_index":136,"time_elapsed":1193668,"internal_node_id":"0.0-132.0"},{"horizon":10,"rewards_L":[61,49,34,31,39,31,34,39,44,39],"rewards_R":[18,21,28,20,14,23,23,20,17,14],"key_presses":["arrowleft","arrowright","arrowright","arrowleft","arrowright","arrowleft","arrowright","arrowleft","arrowright","arrowleft"],"response_times":[705,196,240,141,78,151,84,518,251,1092],"outcomes":[61,21,28,31,14,31,23,39,17,39],"screen_resolution":1,"trial_type":"horizons-trial","trial_index":137,"time_elapsed":1198008,"internal_node_id":"0.0-133.0"},{"horizon":10,"rewards_L":[53,59,47,61,67,60,53,64,60,66],"rewards_R":[46,32,39,40,27,22,23,39,40,42],"key_presses":["arrowleft","arrowright","arrowright","arrowright","arrowleft","arrowright","arrowright","arrowleft","arrowright","arrowleft"],"response_times":[177,489,297,412,179,92,235,471,137,540],"outcomes":[53,32,39,40,67,22,23,64,40,66],"screen_resolution":1,"trial_type":"horizons-trial","trial_index":138,"time_elapsed":1201882,"internal_node_id":"0.0-134.0"},{"horizon":10,"rewards_L":[44,61,47,62,54,56,53,55,36,51],"rewards_R":[53,54,57,53,67,62,60,59,69,63],"key_presses":["arrowright","arrowleft","arrowleft","arrowleft","arrowright","arrowleft","arrowright","arrowleft","arrowright","arrowleft"],"response_times":[534,165,372,289,176,133,137,195,434,38],"outcomes":[53,61,47,62,67,56,60,55,69,51],"screen_resolution":1,"trial_type":"horizons-trial","trial_index":139,"time_elapsed":1207828,"internal_node_id":"0.0-135.0"},{"horizon":10,"rewards_L":[28,33,36,36,27,51,37,33,22,43],"rewards_R":[34,29,30,27,35,33,41,23,30,44],"key_presses":["arrowleft","arrowright","arrowright","arrowright","arrowleft","arrowleft","arrowright","arrowright","arrowleft","arrowright"],"response_times":[642,229,239,210,187,370,6,200,990,834],"outcomes":[28,29,30,27,27,51,41,23,22,44],"screen_resolution":1,"trial_type":"horizons-trial","trial_index":140,"time_elapsed":1212325,"internal_node_id":"0.0-136.0"},{"horizon":10,"rewards_L":[0,9,0,3,6,22,13,11,4,18],"rewards_R":[41,41,44,40,44,51,38,25,30,43],"key_presses":["arrowright","arrowright","arrowleft","arrowleft","arrowright","arrowleft","arrowright","arrowleft","arrowright","arrowright"],"response_times":[572,299,129,265,58,162,86,504,157,570],"outcomes":[41,41,0,3,44,22,38,11,30,43],"screen_resolution":1,"trial_type":"horizons-trial","trial_index":141,"time_elapsed":1216088,"internal_node_id":"0.0-137.0"},{"horizon":5,"rewards_L":[89,77,82,70,83],"rewards_R":[61,53,56,66,69],"key_presses":["arrowleft","arrowleft","arrowright","arrowleft","arrowleft"],"response_times":[508,807,123,706,442],"outcomes":[89,77,56,70,83],"screen_resolution":1,"trial_type":"horizons-trial","trial_index":142,"time_elapsed":1219474,"internal_node_id":"0.0-138.0"},{"horizon":5,"rewards_L":[61,47,63,68,63],"rewards_R":[64,75,66,67,62],"key_presses":["arrowright","arrowright","arrowleft","arrowright","arrowright"],"response_times":[631,425,307,147,918],"outcomes":[64,75,63,67,62],"screen_resolution":1,"trial_type":"horizons-trial","trial_index":143,"time_elapsed":1222668,"internal_node_id":"0.0-139.0"},{"horizon":5,"rewards_L":[43,32,44,25,26],"rewards_R":[35,53,38,55,35],"key_presses":["arrowright","arrowleft","arrowleft","arrowleft","arrowright"],"response_times":[685,179,539,432,2608],"outcomes":[35,32,44,25,35],"screen_resolution":1,"trial_type":"horizons-trial","trial_index":144,"time_elapsed":1227880,"internal_node_id":"0.0-140.0"},{"horizon":5,"rewards_L":[81,58,74,58,71],"rewards_R":[63,71,65,68,52],"key_presses":["arrowright","arrowleft","arrowright","arrowright","arrowright"],"response_times":[467,219,100,1022,814],"outcomes":[63,58,65,68,52],"screen_resolution":1,"trial_type":"horizons-trial","trial_index":145,"time_elapsed":1231061,"internal_node_id":"0.0-141.0"},{"horizon":10,"rewards_L":[63,46,70,65,61,61,56,67,52,54],"rewards_R":[68,80,75,81,72,65,57,57,53,70],"key_presses":["arrowleft","arrowright","arrowleft","arrowright","arrowleft","arrowright","arrowright","arrowleft","arrowright","arrowright"],"response_times":[564,151,195,83,179,69,235,580,391,560],"outcomes":[63,80,70,81,61,65,57,67,53,70],"screen_resolution":1,"trial_type":"horizons-trial","trial_index":146,"time_elapsed":1235030,"internal_node_id":"0.0-142.0"},{"horizon":5,"rewards_L":[48,37,58,51,44],"rewards_R":[55,50,59,65,49],"key_presses":["arrowright","arrowright","arrowleft","arrowright","arrowright"],"response_times":[887,326,493,536,774],"outcomes":[55,50,58,65,49],"screen_resolution":1,"trial_type":"horizons-trial","trial_index":147,"time_elapsed":1238628,"internal_node_id":"0.0-143.0"},{"horizon":5,"rewards_L":[60,59,59,58,51],"rewards_R":[39,34,52,38,28],"key_presses":["arrowright","arrowleft","arrowright","arrowright","arrowright"],"response_times":[344,260,158,358,757],"outcomes":[39,59,52,38,28],"screen_resolution":1,"trial_type":"horizons-trial","trial_index":148,"time_elapsed":1241072,"internal_node_id":"0.0-144.0"},{"horizon":5,"rewards_L":[27,35,38,47,41],"rewards_R":[35,34,47,26,42],"key_presses":["arrowright","arrowleft","arrowleft","arrowleft","arrowleft"],"response_times":[458,214,579,694,1787],"outcomes":[35,35,38,47,41],"screen_resolution":1,"trial_type":"horizons-trial","trial_index":149,"time_elapsed":1245619,"internal_node_id":"0.0-145.0"},{"horizon":10,"rewards_L":[42,54,57,43,50,50,57,42,44,42],"rewards_R":[48,48,39,46,29,56,52,33,40,37],"key_presses":["arrowright","arrowleft","arrowleft","arrowright","arrowleft","arrowright","arrowleft","arrowright","arrowleft","arrowleft"],"response_times":[424,254,259,107,131,102,142,85,744,1858],"outcomes":[48,54,57,46,50,56,57,33,44,42],"screen_resolution":1,"trial_type":"horizons-trial","trial_index":150,"time_elapsed":1250969,"internal_node_id":"0.0-146.0"},{"horizon":10,"rewards_L":[57,53,51,62,62,51,60,66,53,64],"rewards_R":[74,72,81,61,77,63,83,63,83,87],"key_presses":["arrowleft","arrowright","arrowleft","arrowleft","arrowright","arrowleft","arrowright","arrowleft","arrowright","arrowright"],"response_times":[486,193,161,229,90,152,115,146,457,587],"outcomes":[57,72,51,62,77,51,83,66,83,87],"screen_resolution":1,"trial_type":"horizons-trial","trial_index":151,"time_elapsed":1254367,"internal_node_id":"0.0-147.0"},{"horizon":10,"rewards_L":[69,62,49,58,53,66,46,55,58,56],"rewards_R":[65,53,51,61,57,56,66,43,64,64],"key_presses":["arrowright","arrowleft","arrowleft","arrowleft","arrowright","arrowleft","arrowright","arrowleft","arrowright","arrowright"],"response_times":[556,229,269,206,125,136,81,523,187,2385],"outcomes":[65,62,49,58,57,66,66,55,64,64],"screen_resolution":1,"trial_type":"horizons-trial","trial_index":152,"time_elapsed":1260090,"internal_node_id":"0.0-148.0"},{"horizon":5,"rewards_L":[16,38,19,29,39],"rewards_R":[51,33,49,40,34],"key_presses":["arrowright","arrowleft","arrowleft","arrowleft","arrowright"],"response_times":[239,248,319,335,736],"outcomes":[51,38,19,29,34],"screen_resolution":1,"trial_type":"horizons-trial","trial_index":153,"time_elapsed":1262831,"internal_node_id":"0.0-149.0"},{"horizon":5,"rewards_L":[46,43,49,48,41],"rewards_R":[50,44,51,53,67],"key_presses":["arrowleft","arrowright","arrowleft","arrowleft","arrowleft"],"response_times":[425,131,196,901,777],"outcomes":[46,44,49,48,41],"screen_resolution":1,"trial_type":"horizons-trial","trial_index":154,"time_elapsed":1266025,"internal_node_id":"0.0-150.0"},{"horizon":5,"rewards_L":[76,59,68,70,71],"rewards_R":[62,80,72,55,78],"key_presses":["arrowleft","arrowright","arrowleft","arrowleft","arrowright"],"response_times":[448,146,184,1001,496],"outcomes":[76,80,68,70,78],"screen_resolution":1,"trial_type":"horizons-trial","trial_index":155,"time_elapsed":1268964,"internal_node_id":"0.0-151.0"},{"horizon":10,"rewards_L":[78,57,47,53,79,51,64,50,49,59],"rewards_R":[66,59,48,58,67,54,66,72,71,67],"key_presses":["arrowleft","arrowleft","arrowright","arrowright","arrowleft","arrowright","arrowleft","arrowleft","arrowright","arrowleft"],"response_times":[505,300,79,223,127,105,144,746,397,2174],"outcomes":[78,57,48,58,79,54,64,50,71,59],"screen_resolution":1,"trial_type":"horizons-trial","trial_index":156,"time_elapsed":1275537,"internal_node_id":"0.0-152.0"},{"horizon":10,"rewards_L":[50,52,46,48,57,46,53,40,38,53],"rewards_R":[32,42,39,35,38,42,49,39,35,42],"key_presses":["arrowleft","arrowright","arrowright","arrowleft","arrowright","arrowleft","arrowright","arrowleft","arrowright","arrowleft"],"response_times":[547,136,358,133,190,89,129,297,433,5697],"outcomes":[50,42,39,48,38,46,49,40,35,53],"screen_resolution":1,"trial_type":"horizons-trial","trial_index":157,"time_elapsed":1284379,"internal_node_id":"0.0-153.0"},{"horizon":10,"rewards_L":[44,46,38,40,56,37,41,47,44,40],"rewards_R":[41,35,42,60,35,33,35,44,27,39],"key_presses":["arrowleft","arrowleft","arrowright","arrowleft","arrowright","arrowleft","arrowright","arrowleft","arrowright","arrowleft"],"response_times":[215,369,119,173,99,127,90,545,268,2139],"outcomes":[44,46,42,40,35,37,35,47,27,40],"screen_resolution":1,"trial_type":"horizons-trial","trial_index":158,"time_elapsed":1289047,"internal_node_id":"0.0-154.0"},{"horizon":10,"rewards_L":[69,58,49,64,52,59,56,52,63,58],"rewards_R":[42,54,46,45,55,39,58,49,39,56],"key_presses":["arrowleft","arrowright","arrowright","arrowright","arrowleft","arrowright","arrowleft","arrowright","arrowleft","arrowleft"],"response_times":[231,168,247,223,153,73,162,74,701,1244],"outcomes":[69,54,46,45,52,39,56,49,63,58],"screen_resolution":1,"trial_type":"horizons-trial","trial_index":159,"time_elapsed":1293158,"internal_node_id":"0.0-155.0"},{"horizon":10,"rewards_L":[37,31,44,37,48,40,38,35,48,45],"rewards_R":[49,33,32,39,65,32,53,32,43,41],"key_presses":["arrowleft","arrowleft","arrowright","arrowright","arrowleft","arrowright","arrowleft","arrowright","arrowleft","arrowleft"],"response_times":[182,278,161,241,155,99,174,127,834,962],"outcomes":[37,31,32,39,48,32,38,32,48,45],"screen_resolution":1,"trial_type":"horizons-trial","trial_index":160,"time_elapsed":1297068,"internal_node_id":"0.0-156.0"},{"horizon":10,"rewards_L":[83,100,84,86,84,86,91,100,98,81],"rewards_R":[62,58,64,66,62,60,61,54,59,50],"key_presses":["arrowright","arrowright","arrowleft","arrowleft","arrowright","arrowleft","arrowright","arrowleft","arrowright","arrowleft"],"response_times":[191,302,179,221,96,138,123,150,88,413],"outcomes":[62,58,84,86,62,86,61,100,59,81],"screen_resolution":1,"trial_type":"horizons-trial","trial_index":161,"time_elapsed":1300774,"internal_node_id":"0.0-157.0"},{"horizon":10,"rewards_L":[38,26,26,48,34,41,32,23,38,46],"rewards_R":[32,46,51,50,38,42,68,63,50,51],"key_presses":["arrowleft","arrowright","arrowleft","arrowleft","arrowright","arrowleft","arrowright","arrowleft","arrowright","arrowright"],"response_times":[411,139,170,254,79,183,402,158,136,1331],"outcomes":[38,46,26,48,38,41,68,23,50,51],"screen_resolution":1,"trial_type":"horizons-trial","trial_index":162,"time_elapsed":1304572,"internal_node_id":"0.0-158.0"},{"horizon":5,"rewards_L":[99,97,70,99,84],"rewards_R":[63,68,70,60,58],"key_presses":["arrowleft","arrowleft","arrowright","arrowleft","arrowleft"],"response_times":[392,422,471,0,612],"outcomes":[99,97,70,99,84],"screen_resolution":1,"trial_type":"horizons-trial","trial_index":163,"time_elapsed":1307140,"internal_node_id":"0.0-159.0"},{"horizon":10,"rewards_L":[56,69,79,60,64,63,67,70,66,52],"rewards_R":[42,52,40,46,50,51,46,58,46,50],"key_presses":["arrowleft","arrowright","arrowright","arrowright","arrowleft","arrowright","arrowleft","arrowleft","arrowright","arrowleft"],"response_times":[346,116,256,357,160,99,156,456,122,2887],"outcomes":[56,52,40,46,64,51,67,70,46,52],"screen_resolution":1,"trial_type":"horizons-trial","trial_index":164,"time_elapsed":1312728,"internal_node_id":"0.0-160.0"},{"horizon":10,"rewards_L":[47,25,42,45,41,45,50,36,45,39],"rewards_R":[27,11,11,14,31,28,23,24,17,30],"key_presses":["arrowleft","arrowright","arrowright","arrowright","arrowleft","arrowright","arrowright","arrowleft","arrowright","arrowleft"],"response_times":[437,139,283,237,151,89,234,319,146,505],"outcomes":[47,11,11,14,41,28,23,36,17,39],"screen_resolution":1,"trial_type":"horizons-trial","trial_index":165,"time_elapsed":1315855,"internal_node_id":"0.0-161.0"},{"horizon":10,"rewards_L":[40,46,22,45,33,27,39,48,34,39],"rewards_R":[66,64,57,49,61,61,74,56,64,66],"key_presses":["arrowleft","arrowright","arrowleft","arrowright","arrowright","arrowleft","arrowright","arrowleft","arrowleft","arrowright"],"response_times":[289,175,158,94,235,193,131,157,523,567],"outcomes":[40,64,22,49,61,27,74,48,34,66],"screen_resolution":1,"trial_type":"horizons-trial","trial_index":166,"time_elapsed":1318922,"internal_node_id":"0.0-162.0"},{"horizon":5,"rewards_L":[66,57,51,65,64],"rewards_R":[53,37,36,40,45],"key_presses":["arrowleft","arrowright","arrowright","arrowleft","arrowleft"],"response_times":[432,147,297,1030,522],"outcomes":[66,37,36,65,64],"screen_resolution":1,"trial_type":"horizons-trial","trial_index":167,"time_elapsed":1321888,"internal_node_id":"0.0-163.0"},{"horizon":10,"rewards_L":[13,32,33,21,28,27,39,22,35,31],"rewards_R":[21,33,33,34,32,29,39,38,36,58],"key_presses":["arrowright","arrowleft","arrowleft","arrowleft","arrowright","arrowleft","arrowright","arrowleft","arrowright","arrowright"],"response_times":[536,177,506,352,163,143,114,127,114,2703],"outcomes":[21,32,33,21,32,27,39,22,36,58],"screen_resolution":1,"trial_type":"horizons-trial","trial_index":168,"time_elapsed":1327363,"internal_node_id":"0.0-164.0"},{"horizon":10,"rewards_L":[33,40,42,28,23,34,56,33,32,34],"rewards_R":[46,55,50,55,52,48,45,57,60,65],"key_presses":["arrowright","arrowright","arrowleft","arrowright","arrowleft","arrowright","arrowleft","arrowright","arrowleft","arrowleft"],"response_times":[494,362,163,90,136,101,121,97,808,8871],"outcomes":[46,55,42,55,23,48,56,57,32,34],"screen_resolution":1,"trial_type":"horizons-trial","trial_index":169,"time_elapsed":1339576,"internal_node_id":"0.0-165.0"},{"horizon":5,"rewards_L":[51,54,45,35,48],"rewards_R":[48,43,35,50,40],"key_presses":["arrowleft","arrowright","arrowright","arrowleft","arrowleft"],"response_times":[562,177,238,840,1142],"outcomes":[51,43,35,35,48],"screen_resolution":1,"trial_type":"horizons-trial","trial_index":170,"time_elapsed":1343048,"internal_node_id":"0.0-166.0"},{"horizon":5,"rewards_L":[63,48,67,65,54],"rewards_R":[89,86,92,86,87],"key_presses":["arrowleft","arrowright","arrowleft","arrowleft","arrowright"],"response_times":[377,220,171,298,568],"outcomes":[63,86,67,65,87],"screen_resolution":1,"trial_type":"horizons-trial","trial_index":171,"time_elapsed":1345269,"internal_node_id":"0.0-167.0"},{"horizon":5,"rewards_L":[16,15,23,32,20],"rewards_R":[27,30,59,28,32],"key_presses":["arrowleft","arrowright","arrowleft","arrowright","arrowright"],"response_times":[357,171,185,143,939],"outcomes":[16,30,23,28,32],"screen_resolution":1,"trial_type":"horizons-trial","trial_index":172,"time_elapsed":1347673,"internal_node_id":"0.0-168.0"},{"horizon":10,"rewards_L":[38,38,34,39,26,58,30,53,46,31],"rewards_R":[69,42,67,61,52,59,64,62,53,55],"key_presses":["arrowright","arrowright","arrowleft","arrowright","arrowleft","arrowright","arrowleft","arrowright","arrowleft","arrowright"],"response_times":[392,348,148,81,156,80,139,90,985,3995],"outcomes":[69,42,34,61,26,59,30,62,46,55],"screen_resolution":1,"trial_type":"horizons-trial","trial_index":173,"time_elapsed":1354661,"internal_node_id":"0.0-169.0"},{"horizon":5,"rewards_L":[88,79,66,95,82],"rewards_R":[63,57,59,61,63],"key_presses":["arrowleft","arrowleft","arrowright","arrowright","arrowleft"],"response_times":[242,282,106,782,238],"outcomes":[88,79,59,61,82],"screen_resolution":1,"trial_type":"horizons-trial","trial_index":174,"time_elapsed":1356945,"internal_node_id":"0.0-170.0"},{"horizon":5,"rewards_L":[50,50,71,63,55],"rewards_R":[58,58,56,57,53],"key_presses":["arrowleft","arrowright","arrowright","arrowright","arrowleft"],"response_times":[301,116,388,862,1023],"outcomes":[50,58,56,57,55],"screen_resolution":1,"trial_type":"horizons-trial","trial_index":175,"time_elapsed":1360305,"internal_node_id":"0.0-171.0"},{"horizon":5,"rewards_L":[55,58,64,65,68],"rewards_R":[71,57,77,63,68],"key_presses":["arrowright","arrowright","arrowleft","arrowright","arrowright"],"response_times":[342,252,656,286,733],"outcomes":[71,57,64,63,68],"screen_resolution":1,"trial_type":"horizons-trial","trial_index":176,"time_elapsed":1363122,"internal_node_id":"0.0-172.0"},{"horizon":10,"rewards_L":[37,32,24,28,36,37,42,25,20,23],"rewards_R":[64,54,68,59,55,46,72,58,51,53],"key_presses":["arrowleft","arrowright","arrowright","arrowleft","arrowright","arrowleft","arrowright","arrowleft","arrowright","arrowright"],"response_times":[303,220,295,185,104,127,117,132,903,2398],"outcomes":[37,54,68,28,55,37,72,25,51,53],"screen_resolution":1,"trial_type":"horizons-trial","trial_index":177,"time_elapsed":1370570,"internal_node_id":"0.0-173.0"},{"horizon":10,"rewards_L":[54,44,35,31,46,46,47,44,41,54],"rewards_R":[56,69,75,69,62,71,62,53,49,56],"key_presses":["arrowright","arrowright","arrowleft","arrowleft","arrowright","arrowleft","arrowright","arrowleft","arrowright","arrowright"],"response_times":[550,311,58,288,113,122,146,124,1006,2965],"outcomes":[56,69,35,31,62,46,62,44,49,56],"screen_resolution":1,"trial_type":"horizons-trial","trial_index":178,"time_elapsed":1376850,"internal_node_id":"0.0-174.0"},{"horizon":5,"rewards_L":[41,39,38,47,36],"rewards_R":[54,69,50,48,56],"key_presses":["arrowright","arrowleft","arrowleft","arrowleft","arrowright"],"response_times":[396,171,271,305,1079],"outcomes":[54,39,38,47,56],"screen_resolution":1,"trial_type":"horizons-trial","trial_index":179,"time_elapsed":1379807,"internal_node_id":"0.0-175.0"},{"horizon":5,"rewards_L":[36,30,34,43,30],"rewards_R":[31,42,41,35,28],"key_presses":["arrowleft","arrowright","arrowleft","arrowright","arrowright"],"response_times":[506,132,182,95,1263],"outcomes":[36,42,34,35,28],"screen_resolution":1,"trial_type":"horizons-trial","trial_index":180,"time_elapsed":1382513,"internal_node_id":"0.0-176.0"},{"horizon":5,"rewards_L":[39,46,45,41,42],"rewards_R":[51,49,57,51,52],"key_presses":["arrowleft","arrowright","arrowright","arrowleft","arrowright"],"response_times":[531,118,306,551,387],"outcomes":[39,49,57,41,52],"screen_resolution":1,"trial_type":"horizons-trial","trial_index":181,"time_elapsed":1385198,"internal_node_id":"0.0-177.0"},{"horizon":5,"rewards_L":[47,60,55,62,64],"rewards_R":[35,52,47,70,49],"key_presses":["arrowleft","arrowright","arrowright","arrowright","arrowright"],"response_times":[364,142,346,931,825],"outcomes":[47,52,47,70,49],"screen_resolution":1,"trial_type":"horizons-trial","trial_index":182,"time_elapsed":1388828,"internal_node_id":"0.0-178.0"},{"horizon":5,"rewards_L":[62,81,60,62,60],"rewards_R":[75,64,55,70,52],"key_presses":["arrowright","arrowleft","arrowleft","arrowright","arrowleft"],"response_times":[404,233,311,170,493],"outcomes":[75,81,60,70,60],"screen_resolution":1,"trial_type":"horizons-trial","trial_index":183,"time_elapsed":1391164,"internal_node_id":"0.0-179.0"},{"horizon":5,"rewards_L":[65,60,75,45,58],"rewards_R":[83,82,92,71,64],"key_presses":["arrowright","arrowright","arrowleft","arrowright","arrowright"],"response_times":[330,350,223,113,459],"outcomes":[83,82,75,71,64],"screen_resolution":1,"trial_type":"horizons-trial","trial_index":184,"time_elapsed":1393200,"internal_node_id":"0.0-180.0"},{"horizon":5,"rewards_L":[0,10,0,6,17],"rewards_R":[42,48,49,63,33],"key_presses":["arrowright","arrowleft","arrowleft","arrowleft","arrowright"],"response_times":[470,247,203,602,430],"outcomes":[42,10,0,6,33],"screen_resolution":1,"trial_type":"horizons-trial","trial_index":185,"time_elapsed":1395666,"internal_node_id":"0.0-181.0"},{"horizon":10,"rewards_L":[82,76,79,78,93,71,72,83,77,84],"rewards_R":[65,67,52,52,61,47,71,66,62,52],"key_presses":["arrowleft","arrowleft","arrowright","arrowright","arrowleft","arrowright","arrowleft","arrowright","arrowleft","arrowleft"],"response_times":[470,364,248,236,199,218,212,88,617,312],"outcomes":[82,76,52,52,93,47,72,66,77,84],"screen_resolution":1,"trial_type":"horizons-trial","trial_index":186,"time_elapsed":1400012,"internal_node_id":"0.0-182.0"},{"horizon":5,"rewards_L":[44,48,37,41,44],"rewards_R":[33,27,27,16,15],"key_presses":["arrowleft","arrowleft","arrowleft","arrowright","arrowleft"],"response_times":[342,363,413,112,546],"outcomes":[44,48,37,16,44],"screen_resolution":1,"trial_type":"horizons-trial","trial_index":187,"time_elapsed":1402640,"internal_node_id":"0.0-183.0"},{"horizon":10,"rewards_L":[59,57,47,62,60,59,50,72,59,56],"rewards_R":[42,44,45,47,30,51,50,32,53,37],"key_presses":["arrowright","arrowleft","arrowright","arrowright","arrowleft","arrowright","arrowleft","arrowright","arrowleft","arrowleft"],"response_times":[173,176,137,232,103,100,194,82,1147,1114],"outcomes":[42,57,45,47,60,51,50,32,59,56],"screen_resolution":1,"trial_type":"horizons-trial","trial_index":188,"time_elapsed":1406858,"internal_node_id":"0.0-184.0"},{"horizon":10,"rewards_L":[57,50,77,69,52,47,68,54,66,68],"rewards_R":[16,22,27,34,20,14,23,34,34,29],"key_presses":["arrowleft","arrowright","arrowright","arrowleft","arrowright","arrowleft","arrowright","arrowleft","arrowright","arrowleft"],"response_times":[636,203,225,139,104,138,111,209,196,904],"outcomes":[57,22,27,69,20,47,23,54,34,68],"screen_resolution":1,"trial_type":"horizons-trial","trial_index":189,"time_elapsed":1410349,"internal_node_id":"0.0-185.0"},{"horizon":10,"rewards_L":[40,49,58,49,68,48,46,55,35,54],"rewards_R":[59,58,45,68,63,57,49,62,49,75],"key_presses":["arrowright","arrowleft","arrowleft","arrowright","arrowleft","arrowright","arrowleft","arrowright","arrowleft","arrowright"],"response_times":[303,140,237,119,136,118,145,100,500,3815],"outcomes":[59,49,58,68,68,57,46,62,35,75],"screen_resolution":1,"trial_type":"horizons-trial","trial_index":190,"time_elapsed":1416472,"internal_node_id":"0.0-186.0"},{"horizon":5,"rewards_L":[81,80,74,72,76],"rewards_R":[32,36,38,36,32],"key_presses":["arrowright","arrowleft","arrowright","arrowleft","arrowleft"],"response_times":[388,138,96,157,492],"outcomes":[32,80,38,72,76],"screen_resolution":1,"trial_type":"horizons-trial","trial_index":191,"time_elapsed":1418453,"internal_node_id":"0.0-187.0"},{"horizon":5,"rewards_L":[29,37,21,23,31],"rewards_R":[27,39,44,48,33],"key_presses":["arrowright","arrowright","arrowright","arrowleft","arrowright"],"response_times":[369,279,243,730,639],"outcomes":[27,39,44,23,33],"screen_resolution":1,"trial_type":"horizons-trial","trial_index":192,"time_elapsed":1421286,"internal_node_id":"0.0-188.0"},{"horizon":5,"rewards_L":[72,56,58,54,56],"rewards_R":[43,63,63,53,47],"key_presses":["arrowleft","arrowleft","arrowright","arrowleft","arrowleft"],"response_times":[376,275,110,566,605],"outcomes":[72,56,63,54,56],"screen_resolution":1,"trial_type":"horizons-trial","trial_index":193,"time_elapsed":1423808,"internal_node_id":"0.0-189.0"},{"horizon":10,"rewards_L":[49,39,52,51,44,42,57,48,61,69],"rewards_R":[55,58,66,38,68,59,56,56,61,58],"key_presses":["arrowright","arrowleft","arrowright","arrowleft","arrowright","arrowleft","arrowright","arrowleft","arrowright","arrowright"],"response_times":[185,198,135,143,115,124,123,566,174,904],"outcomes":[55,39,66,51,68,42,56,48,61,58],"screen_resolution":1,"trial_type":"horizons-trial","trial_index":194,"time_elapsed":1426977,"internal_node_id":"0.0-190.0"},{"horizon":5,"rewards_L":[30,46,43,42,36],"rewards_R":[60,39,43,56,40],"key_presses":["arrowleft","arrowright","arrowleft","arrowright","arrowright"],"response_times":[383,119,126,120,1451],"outcomes":[30,39,43,56,40],"screen_resolution":1,"trial_type":"horizons-trial","trial_index":195,"time_elapsed":1429853,"internal_node_id":"0.0-191.0"},{"horizon":5,"rewards_L":[34,47,32,45,41],"rewards_R":[58,60,60,58,68],"key_presses":["arrowright","arrowleft","arrowright","arrowleft","arrowright"],"response_times":[462,211,126,1125,502],"outcomes":[58,47,60,45,68],"screen_resolution":1,"trial_type":"horizons-trial","trial_index":196,"time_elapsed":1432894,"internal_node_id":"0.0-192.0"},{"horizon":10,"rewards_L":[57,68,57,68,67,67,44,48,61,54],"rewards_R":[36,47,35,46,72,37,52,56,29,54],"key_presses":["arrowleft","arrowright","arrowright","arrowleft","arrowright","arrowleft","arrowright","arrowleft","arrowleft","arrowleft"],"response_times":[448,135,290,141,79,158,113,231,415,574],"outcomes":[57,47,35,68,72,67,52,48,61,54],"screen_resolution":1,"trial_type":"horizons-trial","trial_index":197,"time_elapsed":1436028,"internal_node_id":"0.0-193.0"},{"horizon":5,"rewards_L":[54,68,51,67,55],"rewards_R":[46,37,29,46,52],"key_presses":["arrowright","arrowleft","arrowleft","arrowright","arrowleft"],"response_times":[293,160,291,126,544],"outcomes":[46,68,51,46,55],"screen_resolution":1,"trial_type":"horizons-trial","trial_index":198,"time_elapsed":1438093,"internal_node_id":"0.0-194.0"},{"horizon":10,"rewards_L":[71,63,65,66,74,76,66,56,77,59],"rewards_R":[49,42,36,34,26,44,32,37,30,54],"key_presses":["arrowleft","arrowleft","arrowright","arrowleft","arrowright","arrowleft","arrowright","arrowleft","arrowright","arrowleft"],"response_times":[347,270,90,145,94,173,178,178,93,372],"outcomes":[71,63,36,66,26,76,32,56,30,59],"screen_resolution":1,"trial_type":"horizons-trial","trial_index":199,"time_elapsed":1441513,"internal_node_id":"0.0-195.0"},{"horizon":10,"rewards_L":[44,38,28,32,22,46,34,47,32,33],"rewards_R":[58,55,52,62,45,56,40,60,62,53],"key_presses":["arrowright","arrowleft","arrowleft","arrowright","arrowleft","arrowright","arrowleft","arrowright","arrowright","arrowright"],"response_times":[594,172,203,117,197,77,216,234,456,476],"outcomes":[58,38,28,62,22,56,34,60,62,53],"screen_resolution":1,"trial_type":"horizons-trial","trial_index":200,"time_elapsed":1445248,"internal_node_id":"0.0-196.0"},{"horizon":10,"rewards_L":[42,43,58,49,61,46,49,53,52,47],"rewards_R":[65,51,62,54,58,56,53,74,63,63],"key_presses":["arrowright","arrowright","arrowright","arrowleft","arrowright","arrowleft","arrowright","arrowleft","arrowright","arrowright"],"response_times":[503,333,262,137,74,155,165,269,17,518],"outcomes":[65,51,62,49,58,46,53,53,63,63],"screen_resolution":1,"trial_type":"horizons-trial","trial_index":201,"time_elapsed":1448287,"internal_node_id":"0.0-197.0"},{"horizon":10,"rewards_L":[84,64,67,62,62,67,69,70,61,62],"rewards_R":[57,61,60,43,63,55,59,50,62,58],"key_presses":["arrowright","arrowleft","arrowright","arrowright","arrowleft","arrowright","arrowright","arrowright","arrowleft","arrowleft"],"response_times":[160,218,76,256,94,163,289,225,114,490],"outcomes":[57,64,60,43,62,55,59,50,61,62],"screen_resolution":1,"trial_type":"horizons-trial","trial_index":202,"time_elapsed":1450887,"internal_node_id":"0.0-198.0"},{"horizon":10,"rewards_L":[45,45,66,56,46,55,49,65,69,74],"rewards_R":[93,88,93,77,92,96,79,94,92,98],"key_presses":["arrowright","arrowright","arrowleft","arrowright","arrowleft","arrowright","arrowleft","arrowright","arrowright","arrowright"],"response_times":[214,385,171,116,147,98,127,117,356,232],"outcomes":[93,88,66,77,46,96,49,94,92,98],"screen_resolution":1,"trial_type":"horizons-trial","trial_index":203,"time_elapsed":1453426,"internal_node_id":"0.0-199.0"},{"horizon":10,"rewards_L":[81,84,71,71,80,84,75,89,84,98],"rewards_R":[60,56,71,53,66,51,43,71,60,68],"key_presses":["arrowright","arrowleft","arrowleft","arrowright","arrowleft","arrowright","arrowleft","arrowright","arrowleft","arrowleft"],"response_times":[200,210,172,134,191,89,248,101,430,221],"outcomes":[60,84,71,53,80,51,75,71,84,98],"screen_resolution":1,"trial_type":"horizons-trial","trial_index":204,"time_elapsed":1456013,"internal_node_id":"0.0-200.0"},{"horizon":5,"rewards_L":[31,34,25,24,50],"rewards_R":[58,68,71,44,57],"key_presses":["arrowleft","arrowleft","arrowright","arrowright","arrowright"],"response_times":[214,324,122,739,450],"outcomes":[31,34,71,44,57],"screen_resolution":1,"trial_type":"horizons-trial","trial_index":205,"time_elapsed":1458494,"internal_node_id":"0.0-201.0"},{"horizon":10,"rewards_L":[24,40,48,45,40,41,29,35,30,35],"rewards_R":[16,9,28,12,18,9,21,12,11,11],"key_presses":["arrowleft","arrowleft","arrowleft","arrowright","arrowleft","arrowright","arrowleft","arrowright","arrowright","arrowleft"],"response_times":[234,244,261,109,149,131,184,99,429,373],"outcomes":[24,40,48,12,40,9,29,12,11,35],"screen_resolution":1,"trial_type":"horizons-trial","trial_index":206,"time_elapsed":1461353,"internal_node_id":"0.0-202.0"},{"horizon":10,"rewards_L":[44,55,25,37,65,39,44,33,37,44],"rewards_R":[30,11,43,22,42,22,27,20,19,33],"key_presses":["arrowleft","arrowleft","arrowleft","arrowright","arrowleft","arrowright","arrowleft","arrowright","arrowleft","arrowleft"],"response_times":[425,261,238,74,163,181,232,166,408,361],"outcomes":[44,55,25,22,65,22,44,20,37,44],"screen_resolution":1,"trial_type":"horizons-trial","trial_index":207,"time_elapsed":1464430,"internal_node_id":"0.0-203.0"},{"horizon":10,"rewards_L":[59,65,67,65,53,58,56,58,52,61],"rewards_R":[68,70,83,77,79,73,69,81,75,77],"key_presses":["arrowright","arrowleft","arrowright","arrowleft","arrowright","arrowleft","arrowright","arrowleft","arrowright","arrowleft"],"response_times":[287,184,146,163,96,170,126,198,67,96],"outcomes":[68,65,83,65,79,58,69,58,75,61],"screen_resolution":1,"trial_type":"horizons-trial","trial_index":208,"time_elapsed":1467604,"internal_node_id":"0.0-204.0"},{"horizon":10,"rewards_L":[67,68,76,60,62,72,70,68,58,72],"rewards_R":[64,64,51,60,79,68,52,76,59,68],"key_presses":["arrowleft","arrowleft","arrowright","arrowleft","arrowright","arrowleft","arrowleft","arrowright","arrowleft","arrowleft"],"response_times":[569,377,157,157,88,162,360,162,687,889],"outcomes":[67,68,51,60,79,72,70,76,58,72],"screen_resolution":1,"trial_type":"horizons-trial","trial_index":209,"time_elapsed":1471747,"internal_node_id":"0.0-205.0"},{"horizon":5,"rewards_L":[28,19,32,24,41],"rewards_R":[44,37,46,36,47],"key_presses":["arrowleft","arrowleft","arrowright","arrowright","arrowright"],"response_times":[449,335,76,745,576],"outcomes":[28,19,46,36,47],"screen_resolution":1,"trial_type":"horizons-trial","trial_index":210,"time_elapsed":1474514,"internal_node_id":"0.0-206.0"},{"horizon":10,"rewards_L":[56,50,64,50,54,62,61,59,77,46],"rewards_R":[67,58,47,50,50,57,47,50,46,41],"key_presses":["arrowleft","arrowleft","arrowright","arrowright","arrowleft","arrowright","arrowleft","arrowleft","arrowright","arrowleft"],"response_times":[371,436,73,316,152,97,186,823,162,5257],"outcomes":[56,50,47,50,54,57,61,59,46,46],"screen_resolution":1,"trial_type":"horizons-trial","trial_index":211,"time_elapsed":1482962,"internal_node_id":"0.0-207.0"},{"horizon":5,"rewards_L":[38,26,31,46,40],"rewards_R":[11,28,2,19,20],"key_presses":["arrowleft","arrowleft","arrowright","arrowright","arrowleft"],"response_times":[177,269,116,883,246],"outcomes":[38,26,2,19,40],"screen_resolution":1,"trial_type":"horizons-trial","trial_index":212,"time_elapsed":1485351,"internal_node_id":"0.0-208.0"},{"horizon":10,"rewards_L":[2,3,23,17,7,14,6,0,6,12],"rewards_R":[49,37,55,48,46,40,42,41,41,59],"key_presses":["arrowright","arrowleft","arrowleft","arrowleft","arrowright","arrowleft","arrowright","arrowleft","arrowright","arrowright"],"response_times":[402,242,224,235,80,162,69,331,140,595],"outcomes":[49,3,23,17,46,14,42,0,41,59],"screen_resolution":1,"trial_type":"horizons-trial","trial_index":213,"time_elapsed":1488382,"internal_node_id":"0.0-209.0"},{"horizon":5,"rewards_L":[62,61,68,54,58],"rewards_R":[60,42,37,63,59],"key_presses":["arrowleft","arrowleft","arrowleft","arrowright","arrowleft"],"response_times":[191,282,436,486,558],"outcomes":[62,61,68,63,58],"screen_resolution":1,"trial_type":"horizons-trial","trial_index":214,"time_elapsed":1490933,"internal_node_id":"0.0-210.0"},{"horizon":5,"rewards_L":[83,72,78,48,73],"rewards_R":[59,57,68,53,57],"key_presses":["arrowleft","arrowright","arrowright","arrowleft","arrowleft"],"response_times":[349,119,813,280,439],"outcomes":[83,57,68,48,73],"screen_resolution":1,"trial_type":"horizons-trial","trial_index":215,"time_elapsed":1493460,"internal_node_id":"0.0-211.0"},{"horizon":10,"rewards_L":[52,57,43,66,59,59,53,66,65,57],"rewards_R":[61,62,65,71,67,50,59,74,63,65],"key_presses":["arrowleft","arrowright","arrowleft","arrowleft","arrowright","arrowleft","arrowright","arrowleft","arrowright","arrowright"],"response_times":[368,133,153,270,40,241,125,539,95,1872],"outcomes":[52,62,43,66,67,59,59,66,63,65],"screen_resolution":1,"trial_type":"horizons-trial","trial_index":216,"time_elapsed":1497838,"internal_node_id":"0.0-212.0"},{"horizon":5,"rewards_L":[61,68,48,43,49],"rewards_R":[87,60,75,67,58],"key_presses":["arrowright","arrowleft","arrowright","arrowleft","arrowright"],"response_times":[269,107,130,769,379],"outcomes":[87,68,75,43,58],"screen_resolution":1,"trial_type":"horizons-trial","trial_index":217,"time_elapsed":1500124,"internal_node_id":"0.0-213.0"},{"horizon":5,"rewards_L":[20,14,0,12,27],"rewards_R":[49,30,52,46,40],"key_presses":["arrowright","arrowleft","arrowleft","arrowright","arrowright"],"response_times":[260,237,780,243,570],"outcomes":[49,14,0,46,40],"screen_resolution":1,"trial_type":"horizons-trial","trial_index":218,"time_elapsed":1502847,"internal_node_id":"0.0-214.0"},{"horizon":5,"rewards_L":[65,75,58,74,75],"rewards_R":[52,52,54,72,48],"key_presses":["arrowright","arrowleft","arrowright","arrowright","arrowright"],"response_times":[143,188,74,1007,854],"outcomes":[52,75,54,72,48],"screen_resolution":1,"trial_type":"horizons-trial","trial_index":219,"time_elapsed":1505676,"internal_node_id":"0.0-215.0"},{"horizon":10,"rewards_L":[35,40,39,49,45,32,27,43,43,36],"rewards_R":[31,36,40,48,40,53,46,44,42,61],"key_presses":["arrowleft","arrowright","arrowright","arrowleft","arrowright","arrowleft","arrowright","arrowleft","arrowright","arrowright"],"response_times":[56,487,173,152,86,147,383,201,115,885],"outcomes":[35,36,40,49,40,32,46,43,42,61],"screen_resolution":1,"trial_type":"horizons-trial","trial_index":220,"time_elapsed":1509012,"internal_node_id":"0.0-216.0"},{"horizon":5,"rewards_L":[67,61,66,68,61],"rewards_R":[52,43,46,61,49],"key_presses":["arrowleft","arrowright","arrowleft","arrowright","arrowleft"],"response_times":[223,53,691,151,572],"outcomes":[67,43,66,61,61],"screen_resolution":1,"trial_type":"horizons-trial","trial_index":221,"time_elapsed":1511286,"internal_node_id":"0.0-217.0"},{"horizon":5,"rewards_L":[56,43,39,35,42],"rewards_R":[67,78,54,58,62],"key_presses":["arrowright","arrowright","arrowleft","arrowleft","arrowright"],"response_times":[149,296,344,750,201],"outcomes":[67,78,39,35,62],"screen_resolution":1,"trial_type":"horizons-trial","trial_index":222,"time_elapsed":1513708,"internal_node_id":"0.0-218.0"},{"horizon":5,"rewards_L":[49,52,40,37,58],"rewards_R":[47,41,34,40,45],"key_presses":["arrowright","arrowleft","arrowright","arrowright","arrowleft"],"response_times":[152,179,101,822,1548],"outcomes":[47,52,34,40,58],"screen_resolution":1,"trial_type":"horizons-trial","trial_index":223,"time_elapsed":1517144,"internal_node_id":"0.0-219.0"},{"horizon":10,"rewards_L":[54,48,62,64,73,46,70,63,58,63],"rewards_R":[74,70,70,74,55,63,78,61,59,54],"key_presses":["arrowright","arrowright","arrowleft","arrowright","arrowleft","arrowright","arrowright","arrowright","arrowright","arrowright"],"response_times":[287,225,144,64,133,99,204,440,637,402],"outcomes":[74,70,62,74,73,63,78,61,59,54],"screen_resolution":1,"trial_type":"horizons-trial","trial_index":224,"time_elapsed":1521489,"internal_node_id":"0.0-220.0"},{"horizon":5,"rewards_L":[63,72,63,64,56],"rewards_R":[55,59,65,73,52],"key_presses":["arrowleft","arrowright","arrowleft","arrowright","arrowleft"],"response_times":[547,149,118,82,1406],"outcomes":[63,59,63,73,56],"screen_resolution":1,"trial_type":"horizons-trial","trial_index":225,"time_elapsed":1524369,"internal_node_id":"0.0-221.0"},{"horizon":10,"rewards_L":[96,88,81,93,89,97,100,97,89,95],"rewards_R":[51,56,78,49,58,48,64,58,51,57],"key_presses":["arrowleft","arrowleft","arrowright","arrowleft","arrowright","arrowleft","arrowright","arrowright","arrowleft","arrowleft"],"response_times":[139,306,125,142,110,116,84,417,41,467],"outcomes":[96,88,78,93,58,97,64,58,89,95],"screen_resolution":1,"trial_type":"horizons-trial","trial_index":226,"time_elapsed":1526968,"internal_node_id":"0.0-222.0"},{"horizon":5,"rewards_L":[43,54,51,74,55],"rewards_R":[79,84,79,72,67],"key_presses":["arrowleft","arrowright","arrowleft","arrowleft","arrowright"],"response_times":[322,138,134,768,881],"outcomes":[43,84,51,74,67],"screen_resolution":1,"trial_type":"horizons-trial","trial_index":227,"time_elapsed":1529772,"internal_node_id":"0.0-223.0"},{"horizon":5,"rewards_L":[48,65,70,64,47],"rewards_R":[66,59,61,63,63],"key_presses":["arrowright","arrowleft","arrowright","arrowleft","arrowright"],"response_times":[376,133,110,162,2710],"outcomes":[66,65,61,64,63],"screen_resolution":1,"trial_type":"horizons-trial","trial_index":228,"time_elapsed":1533775,"internal_node_id":"0.0-224.0"},{"horizon":10,"rewards_L":[62,59,51,52,56,69,75,59,61,73],"rewards_R":[62,65,58,51,80,65,54,62,53,60],"key_presses":["arrowleft","arrowright","arrowright","arrowleft","arrowright","arrowleft","arrowright","arrowleft","arrowright","arrowright"],"response_times":[353,93,217,109,117,144,95,424,136,594],"outcomes":[62,65,58,52,80,69,54,59,53,60],"screen_resolution":1,"trial_type":"horizons-trial","trial_index":229,"time_elapsed":1536563,"internal_node_id":"0.0-225.0"},{"horizon":10,"rewards_L":[34,42,57,58,40,43,47,39,56,41],"rewards_R":[59,56,67,56,49,43,52,50,52,53],"key_presses":["arrowright","arrowright","arrowleft","arrowleft","arrowright","arrowleft","arrowright","arrowleft","arrowright","arrowright"],"response_times":[160,295,143,263,101,134,112,465,154,3522],"outcomes":[59,56,57,58,49,43,52,39,52,53],"screen_resolution":1,"trial_type":"horizons-trial","trial_index":230,"time_elapsed":1542603,"internal_node_id":"0.0-226.0"},{"horizon":10,"rewards_L":[45,42,42,37,51,41,39,33,48,43],"rewards_R":[20,25,8,6,22,19,27,15,14,6],"key_presses":["arrowright","arrowleft","arrowleft","arrowright","arrowleft","arrowright","arrowleft","arrowright","arrowleft","arrowleft"],"response_times":[128,124,488,111,160,97,161,113,581,505],"outcomes":[20,42,42,6,51,19,39,15,48,43],"screen_resolution":1,"trial_type":"horizons-trial","trial_index":231,"time_elapsed":1545732,"internal_node_id":"0.0-227.0"},{"horizon":5,"rewards_L":[59,65,61,55,60],"rewards_R":[33,48,40,42,34],"key_presses":["arrowleft","arrowleft","arrowleft","arrowright","arrowleft"],"response_times":[194,293,853,501,522],"outcomes":[59,65,61,42,60],"screen_resolution":1,"trial_type":"horizons-trial","trial_index":232,"time_elapsed":1548728,"internal_node_id":"0.0-228.0"},{"horizon":10,"rewards_L":[49,38,55,52,47,40,47,44,52,57],"rewards_R":[58,66,59,38,68,64,66,56,52,55],"key_presses":["arrowright","arrowright","arrowright","arrowleft","arrowright","arrowleft","arrowright","arrowleft","arrowright","arrowright"],"response_times":[182,260,203,149,110,239,98,197,104,642],"outcomes":[58,66,59,52,68,40,66,44,52,55],"screen_resolution":1,"trial_type":"horizons-trial","trial_index":233,"time_elapsed":1551465,"internal_node_id":"0.0-229.0"},{"horizon":5,"rewards_L":[45,35,55,50,49],"rewards_R":[51,51,61,78,57],"key_presses":["arrowright","arrowleft","arrowleft","arrowright","arrowright"],"response_times":[314,161,642,279,756],"outcomes":[51,35,55,78,57],"screen_resolution":1,"trial_type":"horizons-trial","trial_index":234,"time_elapsed":1554268,"internal_node_id":"0.0-230.0"},{"horizon":10,"rewards_L":[50,27,50,37,43,55,38,49,27,55],"rewards_R":[61,72,74,79,75,90,64,73,66,64],"key_presses":["arrowleft","arrowright","arrowright","arrowleft","arrowright","arrowleft","arrowright","arrowleft","arrowright","arrowright"],"response_times":[350,134,275,144,99,189,101,170,119,495],"outcomes":[50,72,74,37,75,55,64,49,66,64],"screen_resolution":1,"trial_type":"horizons-trial","trial_index":235,"time_elapsed":1556993,"internal_node_id":"0.0-231.0"},{"horizon":5,"rewards_L":[61,53,53,61,66],"rewards_R":[99,92,98,87,87],"key_presses":["arrowright","arrowleft","arrowright","arrowleft","arrowright"],"response_times":[147,174,105,875,193],"outcomes":[99,53,98,61,87],"screen_resolution":1,"trial_type":"horizons-trial","trial_index":236,"time_elapsed":1559616,"internal_node_id":"0.0-232.0"},{"horizon":10,"rewards_L":[27,29,47,24,29,34,28,30,29,16],"rewards_R":[45,31,38,40,38,33,42,38,49,30],"key_presses":["arrowright","arrowright","arrowleft","arrowleft","arrowright","arrowleft","arrowright","arrowright","arrowleft","arrowright"],"response_times":[177,419,164,213,124,138,118,193,694,1401],"outcomes":[45,31,47,24,38,34,42,38,29,30],"screen_resolution":1,"trial_type":"horizons-trial","trial_index":237,"time_elapsed":1564077,"internal_node_id":"0.0-233.0"},{"horizon":5,"rewards_L":[26,48,41,38,30],"rewards_R":[0,8,10,0,15],"key_presses":["arrowleft","arrowright","arrowright","arrowleft","arrowleft"],"response_times":[321,101,840,230,473],"outcomes":[26,8,10,38,30],"screen_resolution":1,"trial_type":"horizons-trial","trial_index":238,"time_elapsed":1566549,"internal_node_id":"0.0-234.0"},{"horizon":5,"rewards_L":[40,39,26,28,31],"rewards_R":[69,69,63,62,67],"key_presses":["arrowleft","arrowright","arrowleft","arrowleft","arrowright"],"response_times":[352,100,178,514,557],"outcomes":[40,69,26,28,67],"screen_resolution":1,"trial_type":"horizons-trial","trial_index":239,"time_elapsed":1568801,"internal_node_id":"0.0-235.0"},{"horizon":10,"rewards_L":[63,63,65,56,59,43,64,50,51,63],"rewards_R":[49,50,54,39,50,58,46,45,41,61],"key_presses":["arrowright","arrowright","arrowleft","arrowleft","arrowright","arrowleft","arrowright","arrowleft","arrowright","arrowleft"],"response_times":[263,232,152,135,189,149,85,149,576,2778],"outcomes":[49,50,65,56,50,43,46,50,41,63],"screen_resolution":1,"trial_type":"horizons-trial","trial_index":240,"time_elapsed":1574104,"internal_node_id":"0.0-236.0"},{"horizon":10,"rewards_L":[51,54,64,51,51,67,54,61,60,53],"rewards_R":[44,37,46,42,47,38,17,40,30,35],"key_presses":["arrowleft","arrowright","arrowright","arrowright","arrowleft","arrowright","arrowleft","arrowright","arrowleft","arrowleft"],"response_times":[296,111,272,220,167,136,163,139,941,942],"outcomes":[51,37,46,42,51,38,54,40,60,53],"screen_resolution":1,"trial_type":"horizons-trial","trial_index":241,"time_elapsed":1578136,"internal_node_id":"0.0-237.0"},{"horizon":5,"rewards_L":[52,84,69,70,63],"rewards_R":[36,29,50,36,52],"key_presses":["arrowleft","arrowleft","arrowright","arrowleft","arrowleft"],"response_times":[320,226,96,559,536],"outcomes":[52,84,50,70,63],"screen_resolution":1,"trial_type":"horizons-trial","trial_index":242,"time_elapsed":1580446,"internal_node_id":"0.0-238.0"},{"horizon":10,"rewards_L":[84,70,89,71,75,75,92,88,64,74],"rewards_R":[56,36,61,47,61,55,47,75,71,75],"key_presses":["arrowright","arrowleft","arrowright","arrowright","arrowright","arrowleft","arrowright","arrowleft","arrowright","arrowleft"],"response_times":[222,154,116,242,191,176,109,158,147,559],"outcomes":[56,70,61,47,61,75,47,88,71,74],"screen_resolution":1,"trial_type":"horizons-trial","trial_index":243,"time_elapsed":1583033,"internal_node_id":"0.0-239.0"},{"horizon":10,"rewards_L":[32,35,41,51,45,34,41,41,42,39],"rewards_R":[43,45,46,53,37,46,54,40,36,54],"key_presses":["arrowright","arrowright","arrowleft","arrowright","arrowleft","arrowright","arrowleft","arrowright","arrowleft","arrowright"],"response_times":[358,248,206,89,156,142,161,105,791,1030],"outcomes":[43,45,41,53,45,46,41,40,42,54],"screen_resolution":1,"trial_type":"horizons-trial","trial_index":244,"time_elapsed":1586876,"internal_node_id":"0.0-240.0"},{"horizon":5,"rewards_L":[56,45,46,64,64],"rewards_R":[50,34,45,60,28],"key_presses":["arrowleft","arrowleft","arrowright","arrowleft","arrowleft"],"response_times":[434,225,121,615,752],"outcomes":[56,45,45,64,64],"screen_resolution":1,"trial_type":"horizons-trial","trial_index":245,"time_elapsed":1589567,"internal_node_id":"0.0-241.0"},{"horizon":5,"rewards_L":[53,47,58,62,71],"rewards_R":[58,58,61,55,48],"key_presses":["arrowleft","arrowright","arrowleft","arrowright","arrowright"],"response_times":[317,114,147,735,2856],"outcomes":[53,58,58,55,48],"screen_resolution":1,"trial_type":"horizons-trial","trial_index":246,"time_elapsed":1594238,"internal_node_id":"0.0-242.0"},{"horizon":5,"rewards_L":[21,49,44,43,41],"rewards_R":[44,62,57,70,64],"key_presses":["arrowright","arrowleft","arrowright","arrowleft","arrowright"],"response_times":[154,212,63,179,1703],"outcomes":[44,49,57,43,64],"scr