[{"success":true,"timeout":false,"failed_images":[],"failed_audio":[],"failed_video":[],"trial_type":"preload","trial_index":0,"time_elapsed":17,"internal_node_id":"0.0-0.0"},{"success":true,"trial_type":"fullscreen","trial_index":1,"time_elapsed":3279,"internal_node_id":"0.0-1.0"},{"rt":10258,"stimulus":"<p>你将开始实验 実験を開始します<b>Horizons task.</b></p><p>查看说明请按 “1” 键，跳过说明请按 “2” 键。説明を見るには “1” キーを押してください。スキップするには “2” キーを押してください。</p>","response":"2","trial_type":"html-keyboard-response","trial_index":2,"time_elapsed":13539,"internal_node_id":"0.0-2.0"},{"view_history":[{"page_index":0,"viewing_time":1228},{"page_index":1,"viewing_time":23761}],"rt":24988,"trial_type":"instructions","trial_index":3,"time_elapsed":38527,"internal_node_id":"0.0-4.0"},{"horizon":5,"rewards_L":[62,53,41,54,57],"rewards_R":[44,45,51,40,42],"key_presses":["arrowright","arrowright","arrowleft","arrowleft","arrowleft"],"response_times":[1468,1326,552,642,2170],"outcomes":[44,45,41,54,57],"screen_resolution":1,"trial_type":"horizons-trial","trial_index":4,"time_elapsed":51505,"internal_node_id":"0.0-5.0"},{"horizon":5,"rewards_L":[20,39,38,42,30],"rewards_R":[52,41,43,48,48],"key_presses":["arrowright","arrowleft","arrowleft","arrowright","arrowright"],"response_times":[725,441,1299,1338,2278],"outcomes":[52,39,38,48,48],"screen_resolution":1,"trial_type":"horizons-trial","trial_index":5,"time_elapsed":58246,"internal_node_id":"0.0-6.0"},{"horizon":5,"rewards_L":[24,26,40,26,23],"rewards_R":[35,45,70,36,43],"key_presses":["arrowleft","arrowright","arrowright","arrowleft","arrowright"],"response_times":[691,402,418,564,545],"outcomes":[24,45,70,26,43],"screen_resolution":1,"trial_type":"horizons-trial","trial_index":6,"time_elapsed":61397,"internal_node_id":"0.0-7.0"},{"horizon":10,"rewards_L":[23,39,46,36,28,44,44,32,38,30],"rewards_R":[39,51,55,37,37,31,32,39,36,49],"key_presses":["arrowright","arrowleft","arrowleft","arrowright","arrowright","arrowright","arrowleft","arrowleft","arrowright","arrowleft"],"response_times":[598,382,567,393,1659,573,3136,1109,1452,767],"outcomes":[39,39,46,37,37,31,44,32,36,30],"screen_resolution":1,"trial_type":"horizons-trial","trial_index":7,"time_elapsed":72717,"internal_node_id":"0.0-8.0"},{"horizon":5,"rewards_L":[22,28,28,29,42],"rewards_R":[39,44,41,39,31],"key_presses":["arrowright","arrowright","arrowright","arrowleft","arrowright"],"response_times":[615,357,403,646,949],"outcomes":[39,44,41,29,31],"screen_resolution":1,"trial_type":"horizons-trial","trial_index":8,"time_elapsed":76474,"internal_node_id":"0.0-9.0"},{"horizon":10,"rewards_L":[63,65,53,63,70,55,79,83,67,71],"rewards_R":[70,53,58,62,69,70,60,67,71,55],"key_presses":["arrowright","arrowleft","arrowright","arrowleft","arrowleft","arrowleft","arrowright","arrowleft","arrowleft","arrowleft"],"response_times":[531,368,369,586,2965,467,1238,529,784,528],"outcomes":[70,65,58,63,70,55,60,83,67,71],"screen_resolution":1,"trial_type":"horizons-trial","trial_index":9,"time_elapsed":85496,"internal_node_id":"0.0-10.0"},{"horizon":10,"rewards_L":[56,60,54,54,42,53,43,51,46,36],"rewards_R":[54,40,44,28,28,48,32,39,42,39],"key_presses":["arrowright","arrowleft","arrowright","arrowright","arrowleft","arrowleft","arrowleft","arrowleft","arrowleft","arrowright"],"response_times":[605,314,280,492,1368,578,678,579,452,617],"outcomes":[54,60,44,28,42,53,43,51,46,39],"screen_resolution":1,"trial_type":"horizons-trial","trial_index":10,"time_elapsed":92922,"internal_node_id":"0.0-11.0"},{"horizon":10,"rewards_L":[49,59,36,68,53,63,62,44,61,45],"rewards_R":[48,50,34,34,40,44,26,36,36,35],"key_presses":["arrowleft","arrowleft","arrowleft","arrowright","arrowleft","arrowleft","arrowright","arrowright","arrowleft","arrowleft"],"response_times":[557,513,861,506,1268,626,393,1896,585,581],"outcomes":[49,59,36,34,53,63,26,36,61,45],"screen_resolution":1,"trial_type":"horizons-trial","trial_index":11,"time_elapsed":101307,"internal_node_id":"0.0-12.0"},{"horizon":10,"rewards_L":[49,28,40,37,55,60,39,44,34,37],"rewards_R":[39,42,48,34,41,42,40,51,54,41],"key_presses":["arrowright","arrowleft","arrowright","arrowright","arrowleft","arrowright","arrowleft","arrowleft","arrowright","arrowright"],"response_times":[596,315,347,519,546,654,341,774,1073,33886],"outcomes":[39,28,48,34,55,42,39,44,54,41],"screen_resolution":1,"trial_type":"horizons-trial","trial_index":12,"time_elapsed":141031,"internal_node_id":"0.0-13.0"},{"horizon":10,"rewards_L":[62,53,78,77,57,81,61,65,65,75],"rewards_R":[38,38,45,48,35,36,46,58,46,35],"key_presses":["arrowleft","arrowleft","arrowright","arrowright","arrowleft","arrowleft","arrowleft","arrowleft","arrowleft","arrowleft"],"response_times":[1000,599,521,489,925,701,578,392,409,509],"outcomes":[62,53,45,48,57,81,61,65,65,75],"screen_resolution":1,"trial_type":"horizons-trial","trial_index":13,"time_elapsed":149209,"internal_node_id":"0.0-14.0"},{"horizon":5,"rewards_L":[63,64,84,70,59],"rewards_R":[43,55,37,51,43],"key_presses":["arrowright","arrowleft","arrowleft","arrowright","arrowleft"],"response_times":[717,444,575,1106,945],"outcomes":[43,64,84,51,59],"screen_resolution":1,"trial_type":"horizons-trial","trial_index":14,"time_elapsed":153941,"internal_node_id":"0.0-15.0"},{"horizon":10,"rewards_L":[38,42,41,27,35,36,38,38,40,46],"rewards_R":[38,47,40,62,56,47,50,39,45,44],"key_presses":["arrowleft","arrowright","arrowleft","arrowleft","arrowright","arrowleft","arrowright","arrowleft","arrowleft","arrowright"],"response_times":[930,823,606,462,767,504,548,432,887,482],"outcomes":[38,47,41,27,56,36,50,38,40,44],"screen_resolution":1,"trial_type":"horizons-trial","trial_index":15,"time_elapsed":161325,"internal_node_id":"0.0-16.0"},{"horizon":10,"rewards_L":[35,48,42,50,35,26,37,28,13,33],"rewards_R":[35,51,51,49,52,34,44,31,49,53],"key_presses":["arrowleft","arrowright","arrowright","arrowleft","arrowright","arrowright","arrowleft","arrowright","arrowleft","arrowright"],"response_times":[6400,348,471,556,317,646,66330,613,644,834],"outcomes":[35,51,51,50,52,34,37,31,13,53],"screen_resolution":1,"trial_type":"horizons-trial","trial_index":16,"time_elapsed":239054,"internal_node_id":"0.0-17.0"},{"horizon":10,"rewards_L":[53,37,41,45,28,35,16,38,46,25],"rewards_R":[50,63,47,62,59,55,62,54,62,56],"key_presses":["arrowright","arrowleft","arrowleft","arrowleft","arrowright","arrowleft","arrowright","arrowright","arrowleft","arrowright"],"response_times":[492,318,577,725,343,1048,394,566,842,523],"outcomes":[50,37,41,45,59,35,62,54,46,56],"screen_resolution":1,"trial_type":"horizons-trial","trial_index":17,"time_elapsed":245912,"internal_node_id":"0.0-18.0"},{"horizon":10,"rewards_L":[58,21,36,25,36,32,36,46,49,31],"rewards_R":[40,46,51,47,34,34,57,54,36,54],"key_presses":["arrowleft","arrowright","arrowleft","arrowright","arrowleft","arrowright","arrowright","arrowright","arrowright","arrowright"],"response_times":[597,293,316,353,12929,345,433,630,603,1873],"outcomes":[58,46,36,47,36,34,57,54,36,54],"screen_resolution":1,"trial_type":"horizons-trial","trial_index":18,"time_elapsed":313082,"internal_node_id":"0.0-19.0"},{"horizon":10,"rewards_L":[56,53,60,65,55,67,59,74,41,49],"rewards_R":[67,63,72,51,54,75,67,57,63,60],"key_presses":["arrowright","arrowright","arrowright","arrowleft","arrowright","arrowleft","arrowright","arrowright","arrowleft","arrowright"],"response_times":[7541,1076,516,408,421,626,433,575,1134,592],"outcomes":[67,63,72,65,54,67,67,57,41,60],"screen_resolution":1,"trial_type":"horizons-trial","trial_index":19,"time_elapsed":327106,"internal_node_id":"0.0-20.0"},{"horizon":10,"rewards_L":[42,64,65,49,41,45,49,49,44,49],"rewards_R":[37,51,30,45,36,34,44,43,39,32],"key_presses":["arrowleft","arrowleft","arrowright","arrowright","arrowleft","arrowright","arrowleft","arrowright","arrowleft","arrowleft"],"response_times":[1212,1373,339,806,815,406,460,571,417,525],"outcomes":[42,64,30,45,41,34,49,43,44,49],"screen_resolution":1,"trial_type":"horizons-trial","trial_index":20,"time_elapsed":334698,"internal_node_id":"0.0-21.0"},{"horizon":10,"rewards_L":[63,73,62,54,65,62,70,60,66,75],"rewards_R":[33,37,25,18,27,42,28,20,41,40],"key_presses":["arrowleft","arrowleft","arrowleft","arrowright","arrowleft","arrowleft","arrowright","arrowleft","arrowleft","arrowleft"],"response_times":[861,515,449,441,556,410,370,410,445,413],"outcomes":[63,73,62,18,65,62,28,60,66,75],"screen_resolution":1,"trial_type":"horizons-trial","trial_index":21,"time_elapsed":340163,"internal_node_id":"0.0-22.0"},{"horizon":10,"rewards_L":[46,40,36,42,35,30,39,48,53,58],"rewards_R":[38,49,41,44,46,46,51,47,28,22],"key_presses":["arrowright","arrowleft","arrowright","arrowleft","arrowleft","arrowright","arrowleft","arrowleft","arrowright","arrowleft"],"response_times":[590,268,288,335,1157,612,548,602,756,1134],"outcomes":[38,40,41,42,35,46,39,48,28,58],"screen_resolution":1,"trial_type":"horizons-trial","trial_index":22,"time_elapsed":347409,"internal_node_id":"0.0-23.0"},{"horizon":5,"rewards_L":[27,40,39,33,48],"rewards_R":[55,52,64,53,69],"key_presses":["arrowright","arrowright","arrowright","arrowleft","arrowright"],"response_times":[677,608,739,563,813],"outcomes":[55,52,64,33,69],"screen_resolution":1,"trial_type":"horizons-trial","trial_index":23,"time_elapsed":351568,"internal_node_id":"0.0-24.0"},{"horizon":10,"rewards_L":[55,64,52,56,56,68,47,60,61,67],"rewards_R":[74,66,74,76,67,73,73,77,73,72],"key_presses":["arrowright","arrowright","arrowleft","arrowright","arrowleft","arrowright","arrowright","arrowright","arrowleft","arrowright"],"response_times":[554,491,331,587,402,607,552,418,346,494],"outcomes":[74,66,52,76,56,73,73,77,61,72],"screen_resolution":1,"trial_type":"horizons-trial","trial_index":24,"time_elapsed":356853,"internal_node_id":"0.0-25.0"},{"horizon":5,"rewards_L":[21,22,13,26,15],"rewards_R":[46,42,32,29,46],"key_presses":["arrowright","arrowright","arrowright","arrowleft","arrowright"],"response_times":[508,522,537,655,780],"outcomes":[46,42,32,26,46],"screen_resolution":1,"trial_type":"horizons-trial","trial_index":25,"time_elapsed":360450,"internal_node_id":"0.0-26.0"},{"horizon":10,"rewards_L":[51,57,43,50,39,53,51,56,36,46],"rewards_R":[43,39,36,37,32,34,53,37,42,58],"key_presses":["arrowleft","arrowleft","arrowright","arrowleft","arrowright","arrowleft","arrowleft","arrowleft","arrowleft","arrowleft"],"response_times":[733,661,282,402,400,391,749,546,454,1169],"outcomes":[51,57,36,50,32,53,51,56,36,46],"screen_resolution":1,"trial_type":"horizons-trial","trial_index":26,"time_elapsed":375528,"internal_node_id":"0.0-27.0"},{"horizon":5,"rewards_L":[50,46,44,44,25],"rewards_R":[50,53,56,58,72],"key_presses":["arrowright","arrowright","arrowleft","arrowleft","arrowright"],"response_times":[769,796,594,933,604],"outcomes":[50,53,44,44,72],"screen_resolution":1,"trial_type":"horizons-trial","trial_index":27,"time_elapsed":379996,"internal_node_id":"0.0-28.0"},{"horizon":5,"rewards_L":[36,33,48,55,46],"rewards_R":[15,2,15,6,23],"key_presses":["arrowright","arrowleft","arrowleft","arrowright","arrowleft"],"response_times":[656,381,585,693,682],"outcomes":[15,33,48,6,46],"screen_resolution":1,"trial_type":"horizons-trial","trial_index":28,"time_elapsed":383643,"internal_node_id":"0.0-29.0"},{"horizon":10,"rewards_L":[11,24,31,25,13,19,22,43,7,26],"rewards_R":[41,40,59,33,40,38,59,34,32,52],"key_presses":["arrowleft","arrowright","arrowright","arrowleft","arrowright","arrowleft","arrowright","arrowright","arrowleft","arrowright"],"response_times":[501,337,602,342,357,488,359,503,386,516],"outcomes":[11,40,59,25,40,19,59,34,7,52],"screen_resolution":1,"trial_type":"horizons-trial","trial_index":29,"time_elapsed":388957,"internal_node_id":"0.0-30.0"},{"horizon":10,"rewards_L":[39,18,24,33,38,17,24,46,39,43],"rewards_R":[35,44,43,49,27,46,44,45,36,40],"key_presses":["arrowright","arrowright","arrowright","arrowleft","arrowright","arrowleft","arrowright","arrowright","arrowleft","arrowright"],"response_times":[497,700,593,699,342,634,633,417,521,662],"outcomes":[35,44,43,33,27,17,44,45,39,40],"screen_resolution":1,"trial_type":"horizons-trial","trial_index":30,"time_elapsed":395584,"internal_node_id":"0.0-31.0"},{"horizon":5,"rewards_L":[64,63,55,43,54],"rewards_R":[49,56,55,62,67],"key_presses":["arrowright","arrowright","arrowleft","arrowleft","arrowright"],"response_times":[41193,594,569,594,934],"outcomes":[49,56,55,43,67],"screen_resolution":1,"trial_type":"horizons-trial","trial_index":31,"time_elapsed":440140,"internal_node_id":"0.0-32.0"},{"horizon":10,"rewards_L":[30,36,39,39,36,43,50,36,34,33],"rewards_R":[46,36,48,31,29,39,27,43,29,32],"key_presses":["arrowleft","arrowright","arrowright","arrowleft","arrowright","arrowleft","arrowright","arrowleft","arrowleft","arrowright"],"response_times":[653,316,464,619,291,605,446,449,918,2388],"outcomes":[30,36,48,39,29,43,27,36,34,32],"screen_resolution":1,"trial_type":"horizons-trial","trial_index":32,"time_elapsed":448359,"internal_node_id":"0.0-33.0"},{"horizon":5,"rewards_L":[43,42,38,31,39],"rewards_R":[12,28,20,18,9],"key_presses":["arrowleft","arrowright","arrowleft","arrowright","arrowleft"],"response_times":[43198,334,367,653,697],"outcomes":[43,28,38,18,39],"screen_resolution":1,"trial_type":"horizons-trial","trial_index":33,"time_elapsed":494333,"internal_node_id":"0.0-34.0"},{"horizon":5,"rewards_L":[37,37,48,44,61],"rewards_R":[31,35,28,34,36],"key_presses":["arrowright","arrowleft","arrowleft","arrowright","arrowleft"],"response_times":[635,451,538,519,644],"outcomes":[31,37,48,34,61],"screen_resolution":1,"trial_type":"horizons-trial","trial_index":34,"time_elapsed":497989,"internal_node_id":"0.0-35.0"},{"horizon":10,"rewards_L":[45,55,47,43,38,36,28,38,44,34],"rewards_R":[66,64,60,38,74,76,60,66,48,57],"key_presses":["arrowright","arrowright","arrowright","arrowleft","arrowright","arrowright","arrowright","arrowright","arrowright","arrowright"],"response_times":[7048,729,841,512,459,935,641,615,744,706],"outcomes":[66,64,60,43,74,76,60,66,48,57],"screen_resolution":1,"trial_type":"horizons-trial","trial_index":35,"time_elapsed":513225,"internal_node_id":"0.0-36.0"},{"horizon":10,"rewards_L":[27,39,43,32,20,43,32,44,35,32],"rewards_R":[10,9,9,12,0,4,1,2,17,9],"key_presses":["arrowright","arrowleft","arrowright","arrowleft","arrowright","arrowleft","arrowleft","arrowleft","arrowleft","arrowleft"],"response_times":[699,535,442,351,1282,405,486,395,490,1320],"outcomes":[10,39,9,32,0,43,32,44,35,32],"screen_resolution":1,"trial_type":"horizons-trial","trial_index":36,"time_elapsed":523080,"internal_node_id":"0.0-37.0"},{"horizon":10,"rewards_L":[40,34,45,43,49,53,38,50,32,42],"rewards_R":[28,36,33,42,24,36,43,9,23,30],"key_presses":["arrowright","arrowleft","arrowright","arrowleft","arrowleft","arrowleft","arrowright","arrowleft","arrowleft","arrowleft"],"response_times":[73506,265,387,360,471,540,401,394,456,635],"outcomes":[28,34,33,43,49,53,43,50,32,42],"screen_resolution":1,"trial_type":"horizons-trial","trial_index":37,"time_elapsed":601252,"internal_node_id":"0.0-38.0"},{"horizon":10,"rewards_L":[39,46,41,36,35,37,41,30,49,39],"rewards_R":[51,44,40,32,37,37,44,53,34,51],"key_presses":["arrowright","arrowleft","arrowleft","arrowleft","arrowright","arrowleft","arrowleft","arrowright","arrowleft","arrowleft"],"response_times":[465,353,442,371,365,491,500,315,501,6398],"outcomes":[51,46,41,36,37,37,41,53,49,39],"screen_resolution":1,"trial_type":"horizons-trial","trial_index":38,"time_elapsed":612198,"internal_node_id":"0.0-39.0"},{"horizon":10,"rewards_L":[37,33,44,41,58,49,39,45,50,34],"rewards_R":[25,34,37,40,38,40,36,49,34,36],"key_presses":["arrowleft","arrowright","arrowright","arrowright","arrowleft","arrowleft","arrowright","arrowleft","arrowleft","arrowleft"],"response_times":[2183,451,476,733,405,560,575,485,895,1700],"outcomes":[37,34,37,40,58,49,36,45,50,34],"screen_resolution":1,"trial_type":"horizons-trial","trial_index":39,"time_elapsed":621460,"internal_node_id":"0.0-40.0"},{"horizon":5,"rewards_L":[79,80,86,90,87],"rewards_R":[52,75,55,61,59],"key_presses":["arrowleft","arrowright","arrowleft","arrowright","arrowleft"],"response_times":[1415,12058,598,657,830],"outcomes":[79,75,86,61,87],"screen_resolution":1,"trial_type":"horizons-trial","trial_index":40,"time_elapsed":637622,"internal_node_id":"0.0-41.0"},{"horizon":10,"rewards_L":[46,45,40,44,44,33,38,34,51,34],"rewards_R":[48,56,52,58,61,49,59,59,42,49],"key_presses":["arrowright","arrowleft","arrowright","arrowleft","arrowright","arrowleft","arrowright","arrowleft","arrowright","arrowright"],"response_times":[763,290,331,377,394,479,408,497,406,472],"outcomes":[48,45,52,44,61,33,59,34,42,49],"screen_resolution":1,"trial_type":"horizons-trial","trial_index":41,"time_elapsed":642595,"internal_node_id":"0.0-42.0"},{"horizon":10,"rewards_L":[70,85,84,83,69,79,91,77,83,93],"rewards_R":[54,73,61,58,63,60,66,57,56,66],"key_presses":["arrowleft","arrowright","arrowright","arrowleft","arrowright","arrowleft","arrowright","arrowleft","arrowleft","arrowleft"],"response_times":[501,318,717,320,413,646,476,245,409,373],"outcomes":[70,73,61,83,63,79,66,77,83,93],"screen_resolution":1,"trial_type":"horizons-trial","trial_index":42,"time_elapsed":647533,"internal_node_id":"0.0-43.0"},{"horizon":5,"rewards_L":[57,60,61,80,48],"rewards_R":[57,65,57,75,60],"key_presses":["arrowleft","arrowright","arrowright","arrowleft","arrowleft"],"response_times":[445,367,470,397,1044],"outcomes":[57,65,57,80,48],"screen_resolution":1,"trial_type":"horizons-trial","trial_index":43,"time_elapsed":651093,"internal_node_id":"0.0-44.0"},{"horizon":5,"rewards_L":[40,34,32,41,45],"rewards_R":[35,40,40,43,36],"key_presses":["arrowleft","arrowleft","arrowright","arrowleft","arrowleft"],"response_times":[561,658,529,332,1410],"outcomes":[40,34,40,41,45],"screen_resolution":1,"trial_type":"horizons-trial","trial_index":44,"time_elapsed":690465,"internal_node_id":"0.0-45.0"},{"horizon":5,"rewards_L":[56,55,52,35,47],"rewards_R":[27,36,24,36,48],"key_presses":["arrowright","arrowleft","arrowright","arrowleft","arrowleft"],"response_times":[552,585,349,240,1009],"outcomes":[27,55,24,35,47],"screen_resolution":1,"trial_type":"horizons-trial","trial_index":45,"time_elapsed":694056,"internal_node_id":"0.0-46.0"},{"horizon":10,"rewards_L":[66,54,63,64,61,51,65,50,63,63],"rewards_R":[79,69,74,86,71,86,67,72,77,73],"key_presses":["arrowright","arrowright","arrowleft","arrowright","arrowright","arrowright","arrowleft","arrowright","arrowright","arrowright"],"response_times":[547,537,422,410,520,665,372,453,536,690],"outcomes":[79,69,63,86,71,86,65,72,77,73],"screen_resolution":1,"trial_type":"horizons-trial","trial_index":46,"time_elapsed":700596,"internal_node_id":"0.0-47.0"},{"horizon":5,"rewards_L":[29,35,28,52,30],"rewards_R":[70,64,62,52,73],"key_presses":["arrowright","arrowleft","arrowleft","arrowleft","arrowright"],"response_times":[264082,515,810,557,535],"outcomes":[70,35,28,52,73],"screen_resolution":1,"trial_type":"horizons-trial","trial_index":47,"time_elapsed":967792,"internal_node_id":"0.0-48.0"},{"horizon":10,"rewards_L":[34,40,33,19,24,30,27,28,32,35],"rewards_R":[43,44,36,38,52,53,45,39,31,26],"key_presses":["arrowright","arrowleft","arrowright","arrowleft","arrowright","arrowleft","arrowright","arrowright","arrowright","arrowright"],"response_times":[662,295,449,396,360,521,310,549,535,687],"outcomes":[43,40,36,19,52,30,45,39,31,26],"screen_resolution":1,"trial_type":"horizons-trial","trial_index":48,"time_elapsed":973198,"internal_node_id":"0.0-49.0"},{"horizon":10,"rewards_L":[42,34,40,44,55,49,54,31,56,55],"rewards_R":[36,52,42,43,42,51,32,36,41,30],"key_presses":["arrowleft","arrowright","arrowleft","arrowright","arrowright","arrowleft","arrowright","arrowleft","arrowright","arrowleft"],"response_times":[693,313,380,372,443,435,2204,1761,539,613],"outcomes":[42,52,40,43,42,49,32,31,41,55],"screen_resolution":1,"trial_type":"horizons-trial","trial_index":49,"time_elapsed":981622,"internal_node_id":"0.0-50.0"},{"horizon":10,"rewards_L":[35,50,48,46,48,53,54,33,50,45],"rewards_R":[44,44,47,49,55,40,34,32,29,42],"key_presses":["arrowright","arrowright","arrowleft","arrowleft","arrowright","arrowleft","arrowright","arrowleft","arrowright","arrowleft"],"response_times":[612,665,376,452,9726,510,423,377,658,1195],"outcomes":[44,44,48,46,55,53,34,33,29,45],"screen_resolution":1,"trial_type":"horizons-trial","trial_index":50,"time_elapsed":997178,"internal_node_id":"0.0-51.0"},{"horizon":5,"rewards_L":[82,90,83,76,91],"rewards_R":[68,56,52,68,65],"key_presses":["arrowright","arrowleft","arrowleft","arrowright","arrowleft"],"response_times":[455,351,666,694,387],"outcomes":[68,90,83,68,91],"screen_resolution":1,"trial_type":"horizons-trial","trial_index":51,"time_elapsed":1000336,"internal_node_id":"0.0-52.0"},{"horizon":5,"rewards_L":[71,68,63,45,48],"rewards_R":[59,45,72,69,55],"key_presses":["arrowright","arrowright","arrowleft","arrowleft","arrowright"],"response_times":[672,620,337,701,2328],"outcomes":[59,45,63,45,55],"screen_resolution":1,"trial_type":"horizons-trial","trial_index":52,"time_elapsed":1151416,"internal_node_id":"0.0-53.0"},{"horizon":5,"rewards_L":[49,46,32,36,29],"rewards_R":[75,71,59,84,60],"key_presses":["arrowleft","arrowright","arrowleft","arrowright","arrowright"],"response_times":[3403,470,499,308,679],"outcomes":[49,71,32,84,60],"screen_resolution":1,"trial_type":"horizons-trial","trial_index":53,"time_elapsed":1157323,"internal_node_id":"0.0-54.0"},{"horizon":5,"rewards_L":[59,67,67,60,50],"rewards_R":[36,61,39,30,45],"key_presses":["arrowleft","arrowright","arrowright","arrowright","arrowleft"],"response_times":[12462,315,630,451,505],"outcomes":[59,61,39,30,50],"screen_resolution":1,"trial_type":"horizons-trial","trial_index":54,"time_elapsed":1172696,"internal_node_id":"0.0-55.0"},{"horizon":10,"rewards_L":[75,67,63,55,51,62,41,55,52,57],"rewards_R":[37,38,48,26,37,12,54,46,31,26],"key_presses":["arrowleft","arrowright","arrowleft","arrowright","arrowleft","arrowleft","arrowleft","arrowright","arrowleft","arrowleft"],"response_times":[553,317,197,737,239,261,398,278,568,407],"outcomes":[75,38,63,26,51,62,41,46,52,57],"screen_resolution":1,"trial_type":"horizons-trial","trial_index":55,"time_elapsed":1177239,"internal_node_id":"0.0-56.0"},{"horizon":10,"rewards_L":[22,7,18,20,20,23,17,18,16,14],"rewards_R":[29,47,37,34,57,37,20,28,23,48],"key_presses":["arrowright","arrowleft","arrowleft","arrowleft","arrowright","arrowright","arrowright","arrowleft","arrowright","arrowright"],"response_times":[544,221,827,626,313,418,290,643,443,525],"outcomes":[29,7,18,20,57,37,20,18,23,48],"screen_resolution":1,"trial_type":"horizons-trial","trial_index":56,"time_elapsed":1182646,"internal_node_id":"0.0-57.0"},{"horizon":5,"rewards_L":[63,55,55,51,54],"rewards_R":[51,45,39,43,54],"key_presses":["arrowleft","arrowright","arrowright","arrowright","arrowleft"],"response_times":[437,330,670,632,2483],"outcomes":[63,45,39,43,54],"screen_resolution":1,"trial_type":"horizons-trial","trial_index":57,"time_elapsed":1187911,"internal_node_id":"0.0-58.0"},{"horizon":10,"rewards_L":[29,30,22,31,32,39,29,32,33,29],"rewards_R":[49,38,25,41,36,38,41,46,36,43],"key_presses":["arrowleft","arrowright","arrowleft","arrowright","arrowleft","arrowright","arrowright","arrowright","arrowleft","arrowright"],"response_times":[681,248,507,260,387,386,350,345,512,505],"outcomes":[29,38,22,41,32,38,41,46,33,43],"screen_resolution":1,"trial_type":"horizons-trial","trial_index":58,"time_elapsed":1193033,"internal_node_id":"0.0-59.0"},{"horizon":10,"rewards_L":[63,73,71,75,56,58,69,74,61,53],"rewards_R":[52,56,57,51,60,66,59,54,65,61],"key_presses":["arrowright","arrowleft","arrowright","arrowright","arrowleft","arrowleft","arrowright","arrowleft","arrowleft","arrowleft"],"response_times":[482,294,255,715,202,469,232,364,514,392],"outcomes":[52,73,57,51,56,58,59,74,61,53],"screen_resolution":1,"trial_type":"horizons-trial","trial_index":59,"time_elapsed":1197829,"internal_node_id":"0.0-60.0"},{"horizon":10,"rewards_L":[49,29,40,24,48,49,43,48,30,45],"rewards_R":[24,21,49,29,38,32,38,27,23,15],"key_presses":["arrowleft","arrowleft","arrowright","arrowright","arrowleft","arrowright","arrowleft","arrowleft","arrowleft","arrowleft"],"response_times":[527,591,216,664,278,682,433,441,659,1262],"outcomes":[49,29,49,29,48,32,43,48,30,45],"screen_resolution":1,"trial_type":"horizons-trial","trial_index":60,"time_elapsed":1216373,"internal_node_id":"0.0-61.0"},{"horizon":5,"rewards_L":[54,37,49,54,48],"rewards_R":[65,72,50,50,60],"key_presses":["arrowright","arrowright","arrowright","arrowleft","arrowright"],"response_times":[580,459,569,441,556],"outcomes":[65,72,50,54,60],"screen_resolution":1,"trial_type":"horizons-trial","trial_index":61,"time_elapsed":1219602,"internal_node_id":"0.0-62.0"},{"horizon":10,"rewards_L":[36,32,37,28,20,30,10,30,31,10],"rewards_R":[50,45,47,24,45,47,37,49,34,37],"key_presses":["arrowright","arrowleft","arrowleft","arrowleft","arrowright","arrowright","arrowright","arrowright","arrowleft","arrowright"],"response_times":[765,335,749,549,285,557,515,534,465,573],"outcomes":[50,32,37,28,45,47,37,49,31,37],"screen_resolution":1,"trial_type":"horizons-trial","trial_index":62,"time_elapsed":1225777,"internal_node_id":"0.0-63.0"},{"horizon":10,"rewards_L":[35,23,28,25,21,35,20,12,24,31],"rewards_R":[37,30,17,53,45,38,47,39,36,19],"key_presses":["arrowleft","arrowleft","arrowright","arrowright","arrowright","arrowleft","arrowleft","arrowright","arrowleft","arrowright"],"response_times":[672,518,387,489,474,418,749,642,1970,1455],"outcomes":[35,23,17,53,45,35,20,39,24,19],"screen_resolution":1,"trial_type":"horizons-trial","trial_index":63,"time_elapsed":1234383,"internal_node_id":"0.0-64.0"},{"horizon":5,"rewards_L":[23,20,23,21,34],"rewards_R":[32,47,47,45,43],"key_presses":["arrowright","arrowleft","arrowright","arrowleft","arrowright"],"response_times":[445,337,302,427,409],"outcomes":[32,20,47,21,43],"screen_resolution":1,"trial_type":"horizons-trial","trial_index":64,"time_elapsed":1236811,"internal_node_id":"0.0-65.0"},{"horizon":5,"rewards_L":[57,67,54,69,57],"rewards_R":[63,60,52,50,60],"key_presses":["arrowleft","arrowleft","arrowright","arrowleft","arrowleft"],"response_times":[476,628,438,393,581],"outcomes":[57,67,52,69,57],"screen_resolution":1,"trial_type":"horizons-trial","trial_index":65,"time_elapsed":1267702,"internal_node_id":"0.0-66.0"},{"horizon":5,"rewards_L":[50,41,41,59,57],"rewards_R":[50,50,29,46,37],"key_presses":["arrowleft","arrowright","arrowleft","arrowright","arrowright"],"response_times":[441,348,269,367,818],"outcomes":[50,50,41,46,37],"screen_resolution":1,"trial_type":"horizons-trial","trial_index":66,"time_elapsed":1270691,"internal_node_id":"0.0-67.0"},{"horizon":10,"rewards_L":[59,59,56,61,59,59,65,48,48,42],"rewards_R":[41,41,51,48,45,49,31,41,41,46],"key_presses":["arrowleft","arrowleft","arrowright","arrowleft","arrowright","arrowleft","arrowleft","arrowleft","arrowleft","arrowleft"],"response_times":[493,376,474,326,483,284,472,309,563,394],"outcomes":[59,59,51,61,45,59,65,48,48,42],"screen_resolution":1,"trial_type":"horizons-trial","trial_index":67,"time_elapsed":1275822,"internal_node_id":"0.0-68.0"},{"horizon":10,"rewards_L":[42,45,28,19,20,33,39,16,42,16],"rewards_R":[41,40,43,39,37,51,36,36,39,36],"key_presses":["arrowright","arrowright","arrowright","arrowleft","arrowright","arrowright","arrowleft","arrowright","arrowright","arrowright"],"response_times":[1606,509,415,332,359,358,347,360,489,639],"outcomes":[41,40,43,19,37,51,39,36,39,36],"screen_resolution":1,"trial_type":"horizons-trial","trial_index":68,"time_elapsed":1282112,"internal_node_id":"0.0-69.0"},{"horizon":10,"rewards_L":[67,65,57,73,60,57,62,58,48,63],"rewards_R":[61,51,49,48,47,47,54,58,53,49],"key_presses":["arrowleft","arrowright","arrowright","arrowright","arrowleft","arrowright","arrowleft","arrowleft","arrowleft","arrowleft"],"response_times":[498,270,510,465,251,283,476,499,299,518],"outcomes":[67,51,49,48,60,47,62,58,48,63],"screen_resolution":1,"trial_type":"horizons-trial","trial_index":69,"time_elapsed":1286932,"internal_node_id":"0.0-70.0"},{"horizon":10,"rewards_L":[65,70,66,58,74,67,71,57,55,60],"rewards_R":[58,61,51,63,60,50,38,65,68,65],"key_presses":["arrowleft","arrowleft","arrowleft","arrowright","arrowleft","arrowright","arrowleft","arrowleft","arrowleft","arrowleft"],"response_times":[531,588,468,285,279,460,265,398,320,507],"outcomes":[65,70,66,63,74,50,71,57,55,60],"screen_resolution":1,"trial_type":"horizons-trial","trial_index":70,"time_elapsed":1291788,"internal_node_id":"0.0-71.0"},{"horizon":10,"rewards_L":[68,57,70,69,43,46,62,67,70,50],"rewards_R":[41,55,66,52,59,55,52,54,56,47],"key_presses":["arrowleft","arrowright","arrowleft","arrowright","arrowleft","arrowleft","arrowleft","arrowright","arrowleft","arrowleft"],"response_times":[1980,308,309,408,239,331,264,326,412,889],"outcomes":[68,55,70,52,43,46,62,54,70,50],"screen_resolution":1,"trial_type":"horizons-trial","trial_index":71,"time_elapsed":1297818,"internal_node_id":"0.0-72.0"},{"horizon":10,"rewards_L":[45,49,49,38,41,51,40,41,54,51],"rewards_R":[66,56,53,62,64,47,62,58,70,59],"key_presses":["arrowright","arrowleft","arrowleft","arrowleft","arrowright","arrowleft","arrowright","arrowright","arrowright","arrowright"],"response_times":[687,273,442,700,288,432,430,456,459,991],"outcomes":[66,49,49,38,64,51,62,58,70,59],"screen_resolution":1,"trial_type":"horizons-trial","trial_index":72,"time_elapsed":1303761,"internal_node_id":"0.0-73.0"},{"horizon":5,"rewards_L":[21,32,54,25,32],"rewards_R":[59,60,81,59,60],"key_presses":["arrowright","arrowright","arrowright","arrowleft","arrowright"],"response_times":[1215,1250,824,772,363],"outcomes":[59,60,81,25,60],"screen_resolution":1,"trial_type":"horizons-trial","trial_index":73,"time_elapsed":1308783,"internal_node_id":"0.0-74.0"},{"horizon":5,"rewards_L":[23,24,38,20,26],"rewards_R":[67,43,61,52,50],"key_presses":["arrowleft","arrowright","arrowleft","arrowright","arrowright"],"response_times":[543,299,381,324,474],"outcomes":[23,43,38,52,50],"screen_resolution":1,"trial_type":"horizons-trial","trial_index":74,"time_elapsed":1311327,"internal_node_id":"0.0-75.0"},{"horizon":5,"rewards_L":[51,56,61,63,62],"rewards_R":[41,48,56,42,44],"key_presses":["arrowleft","arrowright","arrowright","arrowleft","arrowright"],"response_times":[676,516,40,707,372],"outcomes":[51,48,56,63,44],"screen_resolution":1,"trial_type":"horizons-trial","trial_index":75,"time_elapsed":1314504,"internal_node_id":"0.0-76.0"},{"horizon":5,"rewards_L":[52,52,65,66,51],"rewards_R":[84,70,60,74,82],"key_presses":["arrowleft","arrowright","arrowleft","arrowright","arrowright"],"response_times":[611,304,416,332,477],"outcomes":[52,70,65,74,82],"screen_resolution":1,"trial_type":"horizons-trial","trial_index":76,"time_elapsed":1317522,"internal_node_id":"0.0-77.0"},{"horizon":5,"rewards_L":[37,30,36,47,43],"rewards_R":[37,38,35,34,25],"key_presses":["arrowleft","arrowright","arrowright","arrowright","arrowleft"],"response_times":[11430,290,364,727,407],"outcomes":[37,38,35,34,43],"screen_resolution":1,"trial_type":"horizons-trial","trial_index":77,"time_elapsed":1331414,"internal_node_id":"0.0-78.0"},{"horizon":10,"rewards_L":[46,47,42,50,47,39,37,48,39,45],"rewards_R":[40,57,34,39,32,28,36,28,26,33],"key_presses":["arrowleft","arrowleft","arrowleft","arrowright","arrowleft","arrowright","arrowleft","arrowleft","arrowleft","arrowleft"],"response_times":[608,553,337,315,232,472,238,484,403,353],"outcomes":[46,47,42,39,47,28,37,48,39,45],"screen_resolution":1,"trial_type":"horizons-trial","trial_index":78,"time_elapsed":1335953,"internal_node_id":"0.0-79.0"},{"horizon":5,"rewards_L":[58,39,47,42,43],"rewards_R":[53,42,50,41,60],"key_presses":["arrowright","arrowleft","arrowright","arrowright","arrowright"],"response_times":[843,269,336,715,1054],"outcomes":[53,39,50,41,60],"screen_resolution":1,"trial_type":"horizons-trial","trial_index":79,"time_elapsed":1340748,"internal_node_id":"0.0-80.0"},{"horizon":5,"rewards_L":[33,59,47,30,31],"rewards_R":[25,38,55,18,43],"key_presses":["arrowleft","arrowleft","arrowright","arrowright","arrowleft"],"response_times":[506,1628,582,671,700],"outcomes":[33,59,55,18,31],"screen_resolution":1,"trial_type":"horizons-trial","trial_index":80,"time_elapsed":1345447,"internal_node_id":"0.0-81.0"},{"horizon":10,"rewards_L":[27,19,21,32,37,18,19,45,36,34],"rewards_R":[58,55,70,80,59,64,45,60,77,66],"key_presses":["arrowright","arrowleft","arrowleft","arrowright","arrowright","arrowright","arrowright","arrowright","arrowright","arrowright"],"response_times":[7199,33714,382,395,423,496,474,474,431,415],"outcomes":[58,19,21,80,59,64,45,60,77,66],"screen_resolution":1,"trial_type":"horizons-trial","trial_index":81,"time_elapsed":1391121,"internal_node_id":"0.0-82.0"},{"horizon":5,"rewards_L":[56,49,67,80,57],"rewards_R":[57,53,65,61,48],"key_presses":["arrowleft","arrowleft","arrowleft","arrowright","arrowleft"],"response_times":[6790,435,600,415,703],"outcomes":[56,49,67,61,57],"screen_resolution":1,"trial_type":"horizons-trial","trial_index":82,"time_elapsed":1400767,"internal_node_id":"0.0-83.0"},{"horizon":5,"rewards_L":[44,31,36,46,50],"rewards_R":[39,25,21,34,40],"key_presses":["arrowright","arrowright","arrowleft","arrowleft","arrowleft"],"response_times":[406,497,313,747,1711],"outcomes":[39,25,36,46,50],"screen_resolution":1,"trial_type":"horizons-trial","trial_index":83,"time_elapsed":1422479,"internal_node_id":"0.0-84.0"},{"horizon":5,"rewards_L":[52,34,25,41,41],"rewards_R":[17,19,22,24,27],"key_presses":["arrowleft","arrowleft","arrowleft","arrowright","arrowleft"],"response_times":[409,350,415,438,576],"outcomes":[52,34,25,24,41],"screen_resolution":1,"trial_type":"horizons-trial","trial_index":84,"time_elapsed":1425460,"internal_node_id":"0.0-85.0"},{"horizon":5,"rewards_L":[42,48,33,43,48],"rewards_R":[31,18,30,29,26],"key_presses":["arrowleft","arrowright","arrowright","arrowright","arrowleft"],"response_times":[389,324,544,664,430],"outcomes":[42,18,30,29,48],"screen_resolution":1,"trial_type":"horizons-trial","trial_index":85,"time_elapsed":1430678,"internal_node_id":"0.0-86.0"},{"horizon":5,"rewards_L":[54,40,49,44,36],"rewards_R":[33,45,36,45,51],"key_presses":["arrowright","arrowleft","arrowright","arrowleft","arrowleft"],"response_times":[493,400,317,346,752],"outcomes":[33,40,36,44,36],"screen_resolution":1,"trial_type":"horizons-trial","trial_index":86,"time_elapsed":1433849,"internal_node_id":"0.0-87.0"},{"horizon":10,"rewards_L":[36,39,35,40,47,30,39,30,41,40],"rewards_R":[86,68,65,80,66,81,54,67,85,82],"key_presses":["arrowright","arrowleft","arrowleft","arrowright","arrowleft","arrowright","arrowright","arrowright","arrowright","arrowright"],"response_times":[505,296,634,203,509,191,527,514,614,433],"outcomes":[86,39,35,80,47,81,54,67,85,82],"screen_resolution":1,"trial_type":"horizons-trial","trial_index":87,"time_elapsed":1439533,"internal_node_id":"0.0-88.0"},{"horizon":5,"rewards_L":[75,54,64,62,62],"rewards_R":[64,74,80,70,66],"key_presses":["arrowleft","arrowleft","arrowright","arrowright","arrowright"],"response_times":[2861,408,327,831,5380],"outcomes":[75,54,80,70,66],"screen_resolution":1,"trial_type":"horizons-trial","trial_index":88,"time_elapsed":1449862,"internal_node_id":"0.0-89.0"},{"horizon":10,"rewards_L":[31,36,29,38,38,39,31,39,46,40],"rewards_R":[3,28,0,13,19,15,21,3,18,0],"key_presses":["arrowleft","arrowright","arrowright","arrowright","arrowleft","arrowleft","arrowleft","arrowleft","arrowleft","arrowleft"],"response_times":[519,270,552,574,833,481,193,197,397,427],"outcomes":[31,28,0,13,38,39,31,39,46,40],"screen_resolution":1,"trial_type":"horizons-trial","trial_index":89,"time_elapsed":1454830,"internal_node_id":"0.0-90.0"},{"horizon":5,"rewards_L":[54,64,62,65,70],"rewards_R":[35,51,50,47,53],"key_presses":["arrowleft","arrowleft","arrowleft","arrowright","arrowleft"],"response_times":[650,616,609,425,410],"outcomes":[54,64,62,47,70],"screen_resolution":1,"trial_type":"horizons-trial","trial_index":90,"time_elapsed":1458300,"internal_node_id":"0.0-91.0"},{"horizon":5,"rewards_L":[64,60,59,56,44],"rewards_R":[76,82,71,88,70],"key_presses":["arrowright","arrowleft","arrowleft","arrowright","arrowright"],"response_times":[441,307,502,413,1406],"outcomes":[76,60,59,88,70],"screen_resolution":1,"trial_type":"horizons-trial","trial_index":91,"time_elapsed":1462187,"internal_node_id":"0.0-92.0"},{"horizon":10,"rewards_L":[49,42,43,36,41,41,30,32,19,32],"rewards_R":[26,23,14,23,11,19,26,29,29,6],"key_presses":["arrowleft","arrowleft","arrowleft","arrowright","arrowleft","arrowright","arrowleft","arrowleft","arrowleft","arrowleft"],"response_times":[92520,393,530,291,427,285,325,353,557,405],"outcomes":[49,42,43,23,41,19,30,32,19,32],"screen_resolution":1,"trial_type":"horizons-trial","trial_index":92,"time_elapsed":1558890,"internal_node_id":"0.0-93.0"},{"horizon":5,"rewards_L":[45,52,50,56,70],"rewards_R":[48,31,29,40,24],"key_presses":["arrowleft","arrowleft","arrowright","arrowright","arrowleft"],"response_times":[461,341,354,767,414],"outcomes":[45,52,29,40,70],"screen_resolution":1,"trial_type":"horizons-trial","trial_index":93,"time_elapsed":1562033,"internal_node_id":"0.0-94.0"},{"horizon":10,"rewards_L":[43,55,68,59,37,56,54,55,54,51],"rewards_R":[57,60,51,61,63,51,53,51,51,62],"key_presses":["arrowleft","arrowright","arrowright","arrowleft","arrowright","arrowright","arrowleft","arrowright","arrowright","arrowright"],"response_times":[495,296,530,312,344,371,365,515,400,1350],"outcomes":[43,60,51,59,63,51,54,51,51,62],"screen_resolution":1,"trial_type":"horizons-trial","trial_index":94,"time_elapsed":1567864,"internal_node_id":"0.0-95.0"},{"horizon":5,"rewards_L":[67,69,80,66,79],"rewards_R":[58,55,56,57,59],"key_presses":["arrowright","arrowleft","arrowright","arrowleft","arrowleft"],"response_times":[7979,450,322,368,400],"outcomes":[58,69,56,66,79],"screen_resolution":1,"trial_type":"horizons-trial","trial_index":95,"time_elapsed":1578051,"internal_node_id":"0.0-96.0"},{"horizon":5,"rewards_L":[60,58,82,73,67],"rewards_R":[26,42,39,32,24],"key_presses":["arrowleft","arrowright","arrowright","arrowright","arrowleft"],"response_times":[542,339,755,617,409],"outcomes":[60,42,39,32,67],"screen_resolution":1,"trial_type":"horizons-trial","trial_index":96,"time_elapsed":1581541,"internal_node_id":"0.0-97.0"},{"horizon":10,"rewards_L":[34,22,35,41,31,28,24,39,31,44],"rewards_R":[37,72,68,55,59,65,68,62,69,56],"key_presses":["arrowright","arrowright","arrowright","arrowleft","arrowright","arrowleft","arrowright","arrowright","arrowright","arrowright"],"response_times":[453,577,885,392,504,340,341,460,358,357],"outcomes":[37,72,68,41,59,28,68,62,69,56],"screen_resolution":1,"trial_type":"horizons-trial","trial_index":97,"time_elapsed":1586818,"internal_node_id":"0.0-98.0"},{"horizon":10,"rewards_L":[48,52,58,55,56,54,77,57,54,60],"rewards_R":[82,81,68,81,85,75,65,66,78,90],"key_presses":["arrowright","arrowleft","arrowleft","arrowright","arrowright","arrowright","arrowright","arrowright","arrowright","arrowright"],"response_times":[430,337,595,245,385,272,234,245,306,307],"outcomes":[82,52,58,81,85,75,65,66,78,90],"screen_resolution":1,"trial_type":"horizons-trial","trial_index":98,"time_elapsed":1590956,"internal_node_id":"0.0-99.0"},{"horizon":5,"rewards_L":[64,52,64,69,58],"rewards_R":[42,42,24,55,44],"key_presses":["arrowright","arrowright","arrowleft","arrowleft","arrowright"],"response_times":[389,431,720,643,435],"outcomes":[42,42,64,69,44],"screen_resolution":1,"trial_type":"horizons-trial","trial_index":99,"time_elapsed":1594312,"internal_node_id":"0.0-100.0"},{"horizon":10,"rewards_L":[61,53,48,62,47,53,56,52,57,52],"rewards_R":[33,39,34,30,35,38,40,40,48,38],"key_presses":["arrowright","arrowleft","arrowright","arrowright","arrowleft","arrowright","arrowleft","arrowleft","arrowleft","arrowleft"],"response_times":[274,491,264,502,214,244,59,509,519,681],"outcomes":[33,53,34,30,47,38,56,52,57,52],"screen_resolution":1,"trial_type":"horizons-trial","trial_index":100,"time_elapsed":1598636,"internal_node_id":"0.0-101.0"},{"horizon":10,"rewards_L":[66,65,57,64,56,61,63,52,67,76],"rewards_R":[74,70,82,78,68,77,68,64,78,89],"key_presses":["arrowleft","arrowright","arrowright","arrowleft","arrowright","arrowright","arrowright","arrowright","arrowright","arrowright"],"response_times":[445,385,538,282,327,271,268,243,250,418],"outcomes":[66,70,82,64,68,77,68,64,78,89],"screen_resolution":1,"trial_type":"horizons-trial","trial_index":101,"time_elapsed":1602625,"internal_node_id":"0.0-102.0"},{"horizon":10,"rewards_L":[58,59,57,50,54,54,61,62,46,74],"rewards_R":[66,80,86,97,84,70,80,71,79,89],"key_presses":["arrowleft","arrowright","arrowleft","arrowleft","arrowright","arrowleft","arrowleft","arrowright","arrowright","arrowright"],"response_times":[626,263,234,539,265,223,258,325,476,296],"outcomes":[58,80,57,50,84,54,61,71,79,89],"screen_resolution":1,"trial_type":"horizons-trial","trial_index":102,"time_elapsed":1606857,"internal_node_id":"0.0-103.0"},{"horizon":5,"rewards_L":[100,81,79,84,91],"rewards_R":[64,53,72,52,51],"key_presses":["arrowleft","arrowright","arrowright","arrowleft","arrowleft"],"response_times":[671,346,798,327,301],"outcomes":[100,53,72,84,91],"screen_resolution":1,"trial_type":"horizons-trial","trial_index":103,"time_elapsed":1610119,"internal_node_id":"0.0-104.0"},{"horizon":10,"rewards_L":[100,100,84,91,98,81,87,80,90,97],"rewards_R":[68,61,74,60,54,68,64,70,67,65],"key_presses":["arrowright","arrowleft","arrowright","arrowright","arrowleft","arrowleft","arrowleft","arrowleft","arrowleft","arrowleft"],"response_times":[576,275,482,721,261,634,276,323,262,262],"outcomes":[68,100,74,60,98,81,87,80,90,97],"screen_resolution":1,"trial_type":"horizons-trial","trial_index":104,"time_elapsed":1615080,"internal_node_id":"0.0-105.0"},{"horizon":10,"rewards_L":[39,46,41,35,45,35,33,42,47,42],"rewards_R":[29,27,18,30,34,34,26,22,40,18],"key_presses":["arrowright","arrowright","arrowleft","arrowleft","arrowleft","arrowright","arrowleft","arrowleft","arrowleft","arrowleft"],"response_times":[418,572,230,352,253,412,281,371,498,581],"outcomes":[29,27,41,35,45,34,33,42,47,42],"screen_resolution":1,"trial_type":"horizons-trial","trial_index":105,"time_elapsed":1619772,"internal_node_id":"0.0-106.0"},{"horizon":5,"rewards_L":[31,50,32,40,40],"rewards_R":[68,64,55,70,63],"key_presses":["arrowright","arrowright","arrowleft","arrowright","arrowright"],"response_times":[481,572,319,435,751],"outcomes":[68,64,32,70,63],"screen_resolution":1,"trial_type":"horizons-trial","trial_index":106,"time_elapsed":1622964,"internal_node_id":"0.0-107.0"},{"horizon":5,"rewards_L":[79,87,63,74,83],"rewards_R":[63,70,52,61,59],"key_presses":["arrowleft","arrowleft","arrowright","arrowleft","arrowleft"],"response_times":[729,609,335,446,497],"outcomes":[79,87,52,74,83],"screen_resolution":1,"trial_type":"horizons-trial","trial_index":107,"time_elapsed":1626146,"internal_node_id":"0.0-108.0"},{"horizon":10,"rewards_L":[62,62,62,71,62,57,55,55,76,66],"rewards_R":[52,62,59,56,38,59,63,48,49,55],"key_presses":["arrowright","arrowleft","arrowright","arrowleft","arrowleft","arrowleft","arrowleft","arrowleft","arrowleft","arrowleft"],"response_times":[471,224,383,264,529,419,276,362,420,363],"outcomes":[52,62,59,71,62,57,55,55,76,66],"screen_resolution":1,"trial_type":"horizons-trial","trial_index":108,"time_elapsed":1630493,"internal_node_id":"0.0-109.0"},{"horizon":5,"rewards_L":[21,33,44,28,39],"rewards_R":[46,35,36,34,50],"key_presses":["arrowleft","arrowright","arrowleft","arrowright","arrowright"],"response_times":[497,361,508,383,1625],"outcomes":[21,35,44,34,50],"screen_resolution":1,"trial_type":"horizons-trial","trial_index":109,"time_elapsed":1634671,"internal_node_id":"0.0-110.0"},{"horizon":10,"rewards_L":[37,30,46,36,41,34,39,35,50,40],"rewards_R":[58,59,50,49,70,45,60,51,59,65],"key_presses":["arrowleft","arrowright","arrowleft","arrowleft","arrowright","arrowleft","arrowright","arrowright","arrowright","arrowleft"],"response_times":[808,310,299,433,318,196,560,383,299,316],"outcomes":[37,59,46,36,70,34,60,51,59,40],"screen_resolution":1,"trial_type":"horizons-trial","trial_index":110,"time_elapsed":1640070,"internal_node_id":"0.0-111.0"},{"horizon":5,"rewards_L":[55,45,45,38,44],"rewards_R":[60,69,59,51,61],"key_presses":["arrowleft","arrowright","arrowright","arrowleft","arrowright"],"response_times":[701,319,502,470,550],"outcomes":[55,69,59,38,61],"screen_resolution":1,"trial_type":"horizons-trial","trial_index":111,"time_elapsed":1643389,"internal_node_id":"0.0-112.0"},{"horizon":5,"rewards_L":[47,46,53,55,37],"rewards_R":[54,50,50,55,56],"key_presses":["arrowright","arrowright","arrowright","arrowleft","arrowright"],"response_times":[637,478,472,326,485],"outcomes":[54,50,50,55,56],"screen_resolution":1,"trial_type":"horizons-trial","trial_index":112,"time_elapsed":1646482,"internal_node_id":"0.0-113.0"},{"horizon":5,"rewards_L":[33,38,44,27,31],"rewards_R":[62,47,49,47,58],"key_presses":["arrowright","arrowleft","arrowleft","arrowleft","arrowright"],"response_times":[420,274,510,580,477],"outcomes":[62,38,44,27,58],"screen_resolution":1,"trial_type":"horizons-trial","trial_index":113,"time_elapsed":1649278,"internal_node_id":"0.0-114.0"},{"horizon":10,"rewards_L":[51,52,52,60,59,58,59,69,49,64],"rewards_R":[43,41,47,36,52,44,36,45,43,40],"key_presses":["arrowright","arrowright","arrowleft","arrowleft","arrowright","arrowleft","arrowright","arrowleft","arrowleft","arrowleft"],"response_times":[548,454,403,612,308,520,374,999,666,373],"outcomes":[43,41,52,60,52,58,36,69,49,64],"screen_resolution":1,"trial_type":"horizons-trial","trial_index":114,"time_elapsed":1655523,"internal_node_id":"0.0-115.0"},{"horizon":5,"rewards_L":[52,53,56,52,58],"rewards_R":[77,75,75,66,75],"key_presses":["arrowleft","arrowright","arrowleft","arrowleft","arrowright"],"response_times":[1604,334,309,539,756],"outcomes":[52,75,56,52,75],"screen_resolution":1,"trial_type":"horizons-trial","trial_index":115,"time_elapsed":1659579,"internal_node_id":"0.0-116.0"},{"horizon":10,"rewards_L":[80,78,87,66,88,86,82,82,83,86],"rewards_R":[56,55,55,54,53,65,64,62,63,53],"key_presses":["arrowleft","arrowleft","arrowright","arrowleft","arrowleft","arrowright","arrowleft","arrowleft","arrowleft","arrowleft"],"response_times":[492,622,325,305,501,466,518,433,419,528],"outcomes":[80,78,55,66,88,65,82,82,83,86],"screen_resolution":1,"trial_type":"horizons-trial","trial_index":116,"time_elapsed":1664901,"internal_node_id":"0.0-117.0"},{"horizon":10,"rewards_L":[28,46,27,51,43,45,33,44,41,47],"rewards_R":[32,20,20,38,24,29,30,27,18,25],"key_presses":["arrowleft","arrowright","arrowleft","arrowright","arrowleft","arrowleft","arrowleft","arrowleft","arrowleft","arrowleft"],"response_times":[358,493,263,479,936,697,714,5026,466,729],"outcomes":[28,20,27,38,43,45,33,44,41,47],"screen_resolution":1,"trial_type":"horizons-trial","trial_index":117,"time_elapsed":1675877,"internal_node_id":"0.0-118.0"},{"horizon":10,"rewards_L":[70,44,57,48,41,57,65,71,55,43],"rewards_R":[54,56,66,61,53,54,65,56,58,61],"key_presses":["arrowleft","arrowleft","arrowright","arrowright","arrowleft","arrowright","arrowleft","arrowright","arrowleft","arrowleft"],"response_times":[455,404,678,591,266,532,514,297,1892,639],"outcomes":[70,44,66,61,41,54,65,56,55,43],"screen_resolution":1,"trial_type":"horizons-trial","trial_index":118,"time_elapsed":1682673,"internal_node_id":"0.0-119.0"},{"horizon":10,"rewards_L":[61,57,64,67,45,62,55,61,59,61],"rewards_R":[35,34,33,34,29,36,22,24,25,20],"key_presses":["arrowright","arrowleft","arrowleft","arrowright","arrowleft","arrowleft","arrowleft","arrowleft","arrowleft","arrowleft"],"response_times":[638,380,581,282,580,30635,354,347,459,562],"outcomes":[35,57,64,34,45,62,55,61,59,61],"screen_resolution":1,"trial_type":"horizons-trial","trial_index":119,"time_elapsed":1718043,"internal_node_id":"0.0-120.0"},{"horizon":10,"rewards_L":[32,37,24,40,50,41,35,39,49,33],"rewards_R":[65,64,44,68,70,58,62,63,69,49],"key_presses":["arrowleft","arrowright","arrowleft","arrowright","arrowright","arrowright","arrowright","arrowright","arrowright","arrowright"],"response_times":[599,425,485,393,379,625,6955,422,725,501],"outcomes":[32,64,24,68,70,58,62,63,69,49],"screen_resolution":1,"trial_type":"horizons-trial","trial_index":120,"time_elapsed":1730166,"internal_node_id":"0.0-121.0"},{"horizon":10,"rewards_L":[50,40,43,31,39,58,33,42,36,39],"rewards_R":[41,58,37,49,39,30,36,40,38,40],"key_presses":["arrowleft","arrowright","arrowleft","arrowleft","arrowright","arrowright","arrowright","arrowleft","arrowright","arrowright"],"response_times":[605,290,393,584,292,799,454,432,860,1168],"outcomes":[50,58,43,31,39,30,36,42,38,40],"screen_resolution":1,"trial_type":"horizons-trial","trial_index":121,"time_elapsed":1736729,"internal_node_id":"0.0-122.0"},{"horizon":5,"rewards_L":[34,52,42,47,41],"rewards_R":[49,58,41,39,53],"key_presses":["arrowleft","arrowleft","arrowright","arrowright","arrowleft"],"response_times":[781,660,445,1135,1019],"outcomes":[34,52,41,39,41],"screen_resolution":1,"trial_type":"horizons-trial","trial_index":122,"time_elapsed":1741661,"internal_node_id":"0.0-123.0"},{"horizon":5,"rewards_L":[71,82,78,71,50],"rewards_R":[37,50,42,47,33],"key_presses":["arrowright","arrowright","arrowleft","arrowleft","arrowleft"],"response_times":[530,506,506,745,481],"outcomes":[37,50,78,71,50],"screen_resolution":1,"trial_type":"horizons-trial","trial_index":123,"time_elapsed":1766642,"internal_node_id":"0.0-124.0"},{"horizon":5,"rewards_L":[24,17,44,39,36],"rewards_R":[16,3,5,24,7],"key_presses":["arrowleft","arrowleft","arrowleft","arrowright","arrowleft"],"response_times":[494,690,912,346,1959],"outcomes":[24,17,44,24,36],"screen_resolution":1,"trial_type":"horizons-trial","trial_index":124,"time_elapsed":1771721,"internal_node_id":"0.0-125.0"},{"horizon":5,"rewards_L":[38,31,39,36,51],"rewards_R":[0,5,19,1,0],"key_presses":["arrowleft","arrowright","arrowright","arrowright","arrowleft"],"response_times":[652,397,540,1406,467],"outcomes":[38,5,19,1,51],"screen_resolution":1,"trial_type":"horizons-trial","trial_index":125,"time_elapsed":1775885,"internal_node_id":"0.0-126.0"},{"horizon":10,"rewards_L":[33,35,37,24,64,42,43,36,39,37],"rewards_R":[31,28,39,33,50,25,36,30,43,35],"key_presses":["arrowright","arrowright","arrowright","arrowleft","arrowright","arrowleft","arrowright","arrowright","arrowleft","arrowright"],"response_times":[536,600,537,306,404,435,410,487,1160,897],"outcomes":[31,28,39,24,50,42,36,30,39,35],"screen_resolution":1,"trial_type":"horizons-trial","trial_index":126,"time_elapsed":1782201,"internal_node_id":"0.0-127.0"},{"horizon":10,"rewards_L":[40,40,46,47,42,31,27,50,35,38],"rewards_R":[56,57,58,55,71,55,51,49,66,67],"key_presses":["arrowleft","arrowleft","arrowright","arrowright","arrowleft","arrowright","arrowright","arrowright","arrowright","arrowright"],"response_times":[674,544,363,621,293,417,417,324,412,695],"outcomes":[40,40,58,55,42,55,51,49,66,67],"screen_resolution":1,"trial_type":"horizons-trial","trial_index":127,"time_elapsed":1787675,"internal_node_id":"0.0-128.0"},{"horizon":10,"rewards_L":[10,12,12,7,3,17,8,12,12,14],"rewards_R":[31,45,32,32,41,36,33,32,41,38],"key_presses":["arrowright","arrowright","arrowright","arrowleft","arrowright","arrowleft","arrowright","arrowright","arrowright","arrowright"],"response_times":[594,402,306,400,258,519,333,311,527,572],"outcomes":[31,45,32,7,41,17,33,32,41,38],"screen_resolution":1,"trial_type":"horizons-trial","trial_index":128,"time_elapsed":1792706,"internal_node_id":"0.0-129.0"},{"horizon":5,"rewards_L":[23,29,30,27,41],"rewards_R":[40,44,55,39,41],"key_presses":["arrowright","arrowright","arrowright","arrowleft","arrowright"],"response_times":[459,517,373,612,548],"outcomes":[40,44,55,27,41],"screen_resolution":1,"trial_type":"horizons-trial","trial_index":129,"time_elapsed":1796027,"internal_node_id":"0.0-130.0"},{"horizon":10,"rewards_L":[68,56,65,54,52,62,66,54,59,53],"rewards_R":[35,36,39,64,55,45,28,43,47,34],"key_presses":["arrowleft","arrowleft","arrowright","arrowleft","arrowright","arrowleft","arrowleft","arrowleft","arrowleft","arrowleft"],"response_times":[445,572,321,384,332,277,410,315,521,1664],"outcomes":[68,56,39,54,55,62,66,54,59,53],"screen_resolution":1,"trial_type":"horizons-trial","trial_index":130,"time_elapsed":1802102,"internal_node_id":"0.0-131.0"},{"horizon":10,"rewards_L":[54,72,61,38,61,52,55,65,71,55],"rewards_R":[82,86,83,88,81,94,83,84,96,95],"key_presses":["arrowleft","arrowright","arrowleft","arrowleft","arrowright","arrowright","arrowright","arrowright","arrowright","arrowright"],"response_times":[530,387,264,36684,394,613,394,372,390,414],"outcomes":[54,86,61,38,81,94,83,84,96,95],"screen_resolution":1,"trial_type":"horizons-trial","trial_index":131,"time_elapsed":1843105,"internal_node_id":"0.0-132.0"},{"horizon":10,"rewards_L":[61,49,34,31,39,31,34,39,44,39],"rewards_R":[18,21,28,20,14,23,23,20,17,14],"key_presses":["arrowleft","arrowright","arrowright","arrowleft","arrowright","arrowleft","arrowleft","arrowleft","arrowleft","arrowleft"],"response_times":[575,283,634,349,350,270,496,256,392,502],"outcomes":[61,21,28,31,14,31,34,39,44,39],"screen_resolution":1,"trial_type":"horizons-trial","trial_index":132,"time_elapsed":1847716,"internal_node_id":"0.0-133.0"},{"horizon":10,"rewards_L":[53,59,47,61,67,60,53,64,60,66],"rewards_R":[46,32,39,40,27,22,23,39,40,42],"key_presses":["arrowleft","arrowright","arrowright","arrowright","arrowleft","arrowleft","arrowleft","arrowleft","arrowleft","arrowleft"],"response_times":[477,316,551,573,421,41284,409,356,816,953],"outcomes":[53,32,39,40,67,60,53,64,60,66],"screen_resolution":1,"trial_type":"horizons-trial","trial_index":133,"time_elapsed":1894748,"internal_node_id":"0.0-134.0"},{"horizon":10,"rewards_L":[44,61,47,62,54,56,53,55,36,51],"rewards_R":[53,54,57,53,67,62,60,59,69,63],"key_presses":["arrowright","arrowleft","arrowleft","arrowleft","arrowright","arrowleft","arrowleft","arrowleft","arrowright","arrowright"],"response_times":[740,399,465,481,520,383,358,382,859,4308],"outcomes":[53,61,47,62,67,56,53,55,69,63],"screen_resolution":1,"trial_type":"horizons-trial","trial_index":134,"time_elapsed":1904285,"internal_node_id":"0.0-135.0"},{"horizon":10,"rewards_L":[28,33,36,36,27,51,37,33,22,43],"rewards_R":[34,29,30,27,35,33,41,23,30,44],"key_presses":["arrowleft","arrowright","arrowright","arrowright","arrowleft","arrowright","arrowright","arrowleft","arrowright","arrowright"],"response_times":[728,298,373,334,321,379,623,340,491,2360],"outcomes":[28,29,30,27,27,33,41,33,30,44],"screen_resolution":1,"trial_type":"horizons-trial","trial_index":135,"time_elapsed":1911102,"internal_node_id":"0.0-136.0"},{"horizon":10,"rewards_L":[0,9,0,3,6,22,13,11,4,18],"rewards_R":[41,41,44,40,44,51,38,25,30,43],"key_presses":["arrowright","arrowright","arrowleft","arrowleft","arrowright","arrowright","arrowright","arrowright","arrowright","arrowright"],"response_times":[480,598,333,635,341,209,198,382,230,263],"outcomes":[41,41,0,3,44,51,38,25,30,43],"screen_resolution":1,"trial_type":"horizons-trial","trial_index":136,"time_elapsed":1915407,"internal_node_id":"0.0-137.0"},{"horizon":5,"rewards_L":[89,77,82,70,83],"rewards_R":[61,53,56,66,69],"key_presses":["arrowleft","arrowleft","arrowright","arrowleft","arrowleft"],"response_times":[2458,387,31838,313,413],"outcomes":[89,77,56,70,83],"screen_resolution":1,"trial_type":"horizons-trial","trial_index":137,"time_elapsed":1951663,"internal_node_id":"0.0-138.0"},{"horizon":5,"rewards_L":[61,47,63,68,63],"rewards_R":[64,75,66,67,62],"key_presses":["arrowright","arrowright","arrowleft","arrowright","arrowright"],"response_times":[593,435,382,414,725],"outcomes":[64,75,63,67,62],"screen_resolution":1,"trial_type":"horizons-trial","trial_index":138,"time_elapsed":1955084,"internal_node_id":"0.0-139.0"},{"horizon":5,"rewards_L":[43,32,44,25,26],"rewards_R":[35,53,38,55,35],"key_presses":["arrowright","arrowleft","arrowleft","arrowleft","arrowright"],"response_times":[453,323,719,1385,645],"outcomes":[35,32,44,25,35],"screen_resolution":1,"trial_type":"horizons-trial","trial_index":139,"time_elapsed":1959283,"internal_node_id":"0.0-140.0"},{"horizon":5,"rewards_L":[81,58,74,58,71],"rewards_R":[63,71,65,68,52],"key_presses":["arrowright","arrowleft","arrowright","arrowright","arrowright"],"response_times":[3110,367,250,511,1604],"outcomes":[63,58,65,68,52],"screen_resolution":1,"trial_type":"horizons-trial","trial_index":140,"time_elapsed":1973661,"internal_node_id":"0.0-141.0"},{"horizon":10,"rewards_L":[63,46,70,65,61,61,56,67,52,54],"rewards_R":[68,80,75,81,72,65,57,57,53,70],"key_presses":["arrowleft","arrowright","arrowleft","arrowright","arrowright","arrowright","arrowright","arrowright","arrowright","arrowright"],"response_times":[620,268,330,316,372,414,255,324,523,467],"outcomes":[63,80,70,81,72,65,57,57,53,70],"screen_resolution":1,"trial_type":"horizons-trial","trial_index":141,"time_elapsed":2025829,"internal_node_id":"0.0-142.0"},{"horizon":5,"rewards_L":[48,37,58,51,44],"rewards_R":[55,50,59,65,49],"key_presses":["arrowright","arrowright","arrowleft","arrowright","arrowright"],"response_times":[587,654,318,337,527],"outcomes":[55,50,58,65,49],"screen_resolution":1,"trial_type":"horizons-trial","trial_index":142,"time_elapsed":2028792,"internal_node_id":"0.0-143.0"},{"horizon":5,"rewards_L":[60,59,59,58,51],"rewards_R":[39,34,52,38,28],"key_presses":["arrowright","arrowleft","arrowright","arrowright","arrowleft"],"response_times":[416,309,256,691,1054],"outcomes":[39,59,52,38,51],"screen_resolution":1,"trial_type":"horizons-trial","trial_index":143,"time_elapsed":2032307,"internal_node_id":"0.0-144.0"},{"horizon":5,"rewards_L":[27,35,38,47,41],"rewards_R":[35,34,47,26,42],"key_presses":["arrowright","arrowleft","arrowleft","arrowleft","arrowleft"],"response_times":[388,342,567,358,870],"outcomes":[35,35,38,47,41],"screen_resolution":1,"trial_type":"horizons-trial","trial_index":144,"time_elapsed":2035653,"internal_node_id":"0.0-145.0"},{"horizon":10,"rewards_L":[42,54,57,43,50,50,57,42,44,42],"rewards_R":[48,48,39,46,29,56,52,33,40,37],"key_presses":["arrowright","arrowleft","arrowleft","arrowright","arrowleft","arrowright","arrowleft","arrowright","arrowleft","arrowleft"],"response_times":[460,282,367,608,260,449,387,437,278,667],"outcomes":[48,54,57,46,50,56,57,33,44,42],"screen_resolution":1,"trial_type":"horizons-trial","trial_index":145,"time_elapsed":2040526,"internal_node_id":"0.0-146.0"},{"horizon":10,"rewards_L":[57,53,51,62,62,51,60,66,53,64],"rewards_R":[74,72,81,61,77,63,83,63,83,87],"key_presses":["arrowleft","arrowright","arrowleft","arrowleft","arrowright","arrowright","arrowleft","arrowright","arrowright","arrowright"],"response_times":[535,267,205,605,169,429,320,290,403,455],"outcomes":[57,72,51,62,77,63,60,63,83,87],"screen_resolution":1,"trial_type":"horizons-trial","trial_index":146,"time_elapsed":2044817,"internal_node_id":"0.0-147.0"},{"horizon":10,"rewards_L":[69,62,49,58,53,66,46,55,58,56],"rewards_R":[65,53,51,61,57,56,66,43,64,64],"key_presses":["arrowright","arrowleft","arrowleft","arrowleft","arrowright","arrowleft","arrowright","arrowleft","arrowright","arrowright"],"response_times":[532,246,545,501,170,339,368,380,383,1841],"outcomes":[65,62,49,58,57,66,66,55,64,64],"screen_resolution":1,"trial_type":"horizons-trial","trial_index":147,"time_elapsed":2050890,"internal_node_id":"0.0-148.0"},{"horizon":5,"rewards_L":[16,38,19,29,39],"rewards_R":[51,33,49,40,34],"key_presses":["arrowright","arrowleft","arrowleft","arrowleft","arrowright"],"response_times":[416,314,450,805,529],"outcomes":[51,38,19,29,34],"screen_resolution":1,"trial_type":"horizons-trial","trial_index":148,"time_elapsed":2167248,"internal_node_id":"0.0-149.0"},{"horizon":5,"rewards_L":[46,43,49,48,41],"rewards_R":[50,44,51,53,67],"key_presses":["arrowleft","arrowright","arrowleft","arrowleft","arrowleft"],"response_times":[848,357,322,663,14336],"outcomes":[46,44,49,48,41],"screen_resolution":1,"trial_type":"horizons-trial","trial_index":149,"time_elapsed":2184298,"internal_node_id":"0.0-150.0"},{"horizon":5,"rewards_L":[76,59,68,70,71],"rewards_R":[62,80,72,55,78],"key_presses":["arrowleft","arrowright","arrowleft","arrowleft","arrowright"],"response_times":[490,275,264,871,605],"outcomes":[76,80,68,70,78],"screen_resolution":1,"trial_type":"horizons-trial","trial_index":150,"time_elapsed":2187595,"internal_node_id":"0.0-151.0"},{"horizon":10,"rewards_L":[78,57,47,53,79,51,64,50,49,59],"rewards_R":[66,59,48,58,67,54,66,72,71,67],"key_presses":["arrowleft","arrowleft","arrowright","arrowright","arrowleft","arrowleft","arrowleft","arrowleft","arrowleft","arrowleft"],"response_times":[426,369,281,432,346,469,275,440,559,300],"outcomes":[78,57,48,58,79,51,64,50,49,59],"screen_resolution":1,"trial_type":"horizons-trial","trial_index":151,"time_elapsed":2192292,"internal_node_id":"0.0-152.0"},{"horizon":10,"rewards_L":[50,52,46,48,57,46,53,40,38,53],"rewards_R":[32,42,39,35,38,42,49,39,35,42],"key_presses":["arrowleft","arrowright","arrowright","arrowleft","arrowleft","arrowright","arrowleft","arrowleft","arrowleft","arrowleft"],"response_times":[369,310,491,330,9633,325,271,441,379,425],"outcomes":[50,42,39,48,57,42,53,40,38,53],"screen_resolution":1,"trial_type":"horizons-trial","trial_index":152,"time_elapsed":2206047,"internal_node_id":"0.0-153.0"},{"horizon":10,"rewards_L":[44,46,38,40,56,37,41,47,44,40],"rewards_R":[41,35,42,60,35,33,35,44,27,39],"key_presses":["arrowleft","arrowleft","arrowright","arrowleft","arrowright","arrowleft","arrowright","arrowleft","arrowleft","arrowleft"],"response_times":[502,444,354,278,273,179,262,240,709,432],"outcomes":[44,46,42,40,35,37,35,47,44,40],"screen_resolution":1,"trial_type":"horizons-trial","trial_index":153,"time_elapsed":2210473,"internal_node_id":"0.0-154.0"},{"horizon":10,"rewards_L":[69,58,49,64,52,59,56,52,63,58],"rewards_R":[42,54,46,45,55,39,58,49,39,56],"key_presses":["arrowleft","arrowright","arrowright","arrowright","arrowleft","arrowleft","arrowleft","arrowleft","arrowleft","arrowleft"],"response_times":[5320,514,616,13510,725,724,290,413,319,357],"outcomes":[69,54,46,45,52,59,56,52,63,58],"screen_resolution":1,"trial_type":"horizons-trial","trial_index":154,"time_elapsed":2242448,"internal_node_id":"0.0-155.0"},{"horizon":10,"rewards_L":[37,31,44,37,48,40,38,35,48,45],"rewards_R":[49,33,32,39,65,32,53,32,43,41],"key_presses":["arrowleft","arrowleft","arrowright","arrowright","arrowleft","arrowright","arrowleft","arrowleft","arrowleft","arrowleft"],"response_times":[474,536,217,650,232,250,203,630,467,719],"outcomes":[37,31,32,39,48,32,38,35,48,45],"screen_resolution":1,"trial_type":"horizons-trial","trial_index":155,"time_elapsed":2247556,"internal_node_id":"0.0-156.0"},{"horizon":10,"rewards_L":[83,100,84,86,84,86,91,100,98,81],"rewards_R":[62,58,64,66,62,60,61,54,59,50],"key_presses":["arrowright","arrowright","arrowleft","arrowleft","arrowleft","arrowleft","arrowleft","arrowleft","arrowleft","arrowleft"],"response_times":[476,604,301,560,250,290,228,338,425,437],"outcomes":[62,58,84,86,84,86,91,100,98,81],"screen_resolution":1,"trial_type":"horizons-trial","trial_index":156,"time_elapsed":2252152,"internal_node_id":"0.0-157.0"},{"horizon":10,"rewards_L":[38,26,26,48,34,41,32,23,38,46],"rewards_R":[32,46,51,50,38,42,68,63,50,51],"key_presses":["arrowleft","arrowright","arrowleft","arrowleft","arrowright","arrowright","arrowleft","arrowright","arrowright","arrowright"],"response_times":[401,339,167,424,172,289,342,333,239,473],"outcomes":[38,46,26,48,38,42,32,63,50,51],"screen_resolution":1,"trial_type":"horizons-trial","trial_index":157,"time_elapsed":2256242,"internal_node_id":"0.0-158.0"},{"horizon":5,"rewards_L":[99,97,70,99,84],"rewards_R":[63,68,70,60,58],"key_presses":["arrowleft","arrowleft","arrowright","arrowleft","arrowleft"],"response_times":[316,443,716,176,257],"outcomes":[99,97,70,99,84],"screen_resolution":1,"trial_type":"horizons-trial","trial_index":158,"time_elapsed":2258852,"internal_node_id":"0.0-159.0"},{"horizon":10,"rewards_L":[56,69,79,60,64,63,67,70,66,52],"rewards_R":[42,52,40,46,50,51,46,58,46,50],"key_presses":["arrowleft","arrowright","arrowright","arrowright","arrowleft","arrowright","arrowleft","arrowleft","arrowleft","arrowleft"],"response_times":[420,236,385,314,127,233,412,393,286,257],"outcomes":[56,52,40,46,64,51,67,70,66,52],"screen_resolution":1,"trial_type":"horizons-trial","trial_index":159,"time_elapsed":2262628,"internal_node_id":"0.0-160.0"},{"horizon":10,"rewards_L":[47,25,42,45,41,45,50,36,45,39],"rewards_R":[27,11,11,14,31,28,23,24,17,30],"key_presses":["arrowleft","arrowright","arrowright","arrowright","arrowleft","arrowleft","arrowleft","arrowleft","arrowleft","arrowleft"],"response_times":[453,220,519,581,240,244,196,249,355,374],"outcomes":[47,11,11,14,41,45,50,36,45,39],"screen_resolution":1,"trial_type":"horizons-trial","trial_index":160,"time_elapsed":2266851,"internal_node_id":"0.0-161.0"},{"horizon":10,"rewards_L":[40,46,22,45,33,27,39,48,34,39],"rewards_R":[66,64,57,49,61,61,74,56,64,66],"key_presses":["arrowleft","arrowright","arrowleft","arrowright","arrowleft","arrowright","arrowright","arrowright","arrowright","arrowright"],"response_times":[390,318,217,359,511,503,43576,728,1088,532],"outcomes":[40,64,22,49,33,61,74,56,64,66],"screen_resolution":1,"trial_type":"horizons-trial","trial_index":161,"time_elapsed":2315605,"internal_node_id":"0.0-162.0"},{"horizon":5,"rewards_L":[66,57,51,65,64],"rewards_R":[53,37,36,40,45],"key_presses":["arrowleft","arrowright","arrowright","arrowleft","arrowleft"],"response_times":[13536,358,379,413,407],"outcomes":[66,37,36,65,64],"screen_resolution":1,"trial_type":"horizons-trial","trial_index":162,"time_elapsed":2331529,"internal_node_id":"0.0-163.0"},{"horizon":10,"rewards_L":[13,32,33,21,28,27,39,22,35,31],"rewards_R":[21,33,33,34,32,29,39,38,36,58],"key_presses":["arrowright","arrowleft","arrowleft","arrowleft","arrowright","arrowleft","arrowleft","arrowright","arrowleft","arrowleft"],"response_times":[2312,285,557,626,210,274,442,413,691,633],"outcomes":[21,32,33,21,32,27,39,38,35,31],"screen_resolution":1,"trial_type":"horizons-trial","trial_index":163,"time_elapsed":2338495,"internal_node_id":"0.0-164.0"},{"horizon":10,"rewards_L":[33,40,42,28,23,34,56,33,32,34],"rewards_R":[46,55,50,55,52,48,45,57,60,65],"key_presses":["arrowright","arrowright","arrowleft","arrowright","arrowleft","arrowright","arrowright","arrowright","arrowleft","arrowright"],"response_times":[457,360,267,269,394,249,246,239,422,362],"outcomes":[46,55,42,55,23,48,45,57,32,65],"screen_resolution":1,"trial_type":"horizons-trial","trial_index":164,"time_elapsed":2342437,"internal_node_id":"0.0-165.0"},{"horizon":5,"rewards_L":[51,54,45,35,48],"rewards_R":[48,43,35,50,40],"key_presses":["arrowleft","arrowright","arrowright","arrowleft","arrowleft"],"response_times":[361,264,579,327,832],"outcomes":[51,43,35,35,48],"screen_resolution":1,"trial_type":"horizons-trial","trial_index":165,"time_elapsed":2345371,"internal_node_id":"0.0-166.0"},{"horizon":5,"rewards_L":[63,48,67,65,54],"rewards_R":[89,86,92,86,87],"key_presses":["arrowleft","arrowright","arrowleft","arrowleft","arrowright"],"response_times":[386,263,283,812,215],"outcomes":[63,86,67,65,87],"screen_resolution":1,"trial_type":"horizons-trial","trial_index":166,"time_elapsed":2348216,"internal_node_id":"0.0-167.0"},{"horizon":5,"rewards_L":[16,15,23,32,20],"rewards_R":[27,30,59,28,32],"key_presses":["arrowleft","arrowright","arrowleft","arrowright","arrowright"],"response_times":[421,258,448,324,554],"outcomes":[16,30,23,28,32],"screen_resolution":1,"trial_type":"horizons-trial","trial_index":167,"time_elapsed":2350919,"internal_node_id":"0.0-168.0"},{"horizon":10,"rewards_L":[38,38,34,39,26,58,30,53,46,31],"rewards_R":[69,42,67,61,52,59,64,62,53,55],"key_presses":["arrowright","arrowright","arrowleft","arrowright","arrowright","arrowright","arrowleft","arrowright","arrowright","arrowright"],"response_times":[451,395,599,191,276,260,230,287,425,258],"outcomes":[69,42,34,61,52,59,30,62,53,55],"screen_resolution":1,"trial_type":"horizons-trial","trial_index":168,"time_elapsed":2355029,"internal_node_id":"0.0-169.0"},{"horizon":5,"rewards_L":[88,79,66,95,82],"rewards_R":[63,57,59,61,63],"key_presses":["arrowleft","arrowleft","arrowright","arrowright","arrowleft"],"response_times":[390,558,520,499,393],"outcomes":[88,79,59,61,82],"screen_resolution":1,"trial_type":"horizons-trial","trial_index":169,"time_elapsed":2357954,"internal_node_id":"0.0-170.0"},{"horizon":5,"rewards_L":[50,50,71,63,55],"rewards_R":[58,58,56,57,53],"key_presses":["arrowleft","arrowright","arrowright","arrowright","arrowright"],"response_times":[203,455,430,749,1089],"outcomes":[50,58,56,57,53],"screen_resolution":1,"trial_type":"horizons-trial","trial_index":170,"time_elapsed":2361418,"internal_node_id":"0.0-171.0"},{"horizon":5,"rewards_L":[55,58,64,65,68],"rewards_R":[71,57,77,63,68],"key_presses":["arrowright","arrowright","arrowleft","arrowright","arrowright"],"response_times":[455,498,405,353,737],"outcomes":[71,57,64,63,68],"screen_resolution":1,"trial_type":"horizons-trial","trial_index":171,"time_elapsed":2364368,"internal_node_id":"0.0-172.0"},{"horizon":10,"rewards_L":[37,32,24,28,36,37,42,25,20,23],"rewards_R":[64,54,68,59,55,46,72,58,51,53],"key_presses":["arrowleft","arrowright","arrowright","arrowleft","arrowright","arrowright","arrowright","arrowleft","arrowright","arrowright"],"response_times":[639,269,385,308,194,291,460,318,382,456],"outcomes":[37,54,68,28,55,46,72,25,51,53],"screen_resolution":1,"trial_type":"horizons-trial","trial_index":172,"time_elapsed":2368580,"internal_node_id":"0.0-173.0"},{"horizon":10,"rewards_L":[54,44,35,31,46,46,47,44,41,54],"rewards_R":[56,69,75,69,62,71,62,53,49,56],"key_presses":["arrowright","arrowright","arrowleft","arrowleft","arrowright","arrowright","arrowleft","arrowright","arrowright","arrowright"],"response_times":[385,387,576,626,123,338,369,170,669,354],"outcomes":[56,69,35,31,62,71,47,53,49,56],"screen_resolution":1,"trial_type":"horizons-trial","trial_index":173,"time_elapsed":2373358,"internal_node_id":"0.0-174.0"},{"horizon":5,"rewards_L":[41,39,38,47,36],"rewards_R":[54,69,50,48,56],"key_presses":["arrowright","arrowleft","arrowleft","arrowleft","arrowright"],"response_times":[435,268,570,556,467],"outcomes":[54,39,38,47,56],"screen_resolution":1,"trial_type":"horizons-trial","trial_index":174,"time_elapsed":2376217,"internal_node_id":"0.0-175.0"},{"horizon":5,"rewards_L":[36,30,34,43,30],"rewards_R":[31,42,41,35,28],"key_presses":["arrowleft","arrowright","arrowleft","arrowright","arrowright"],"response_times":[690,338,468,236,423],"outcomes":[36,42,34,35,28],"screen_resolution":1,"trial_type":"horizons-trial","trial_index":175,"time_elapsed":2414498,"internal_node_id":"0.0-176.0"},{"horizon":5,"rewards_L":[39,46,45,41,42],"rewards_R":[51,49,57,51,52],"key_presses":["arrowleft","arrowright","arrowright","arrowleft","arrowright"],"response_times":[445,330,336,476,346],"outcomes":[39,49,57,41,52],"screen_resolution":1,"trial_type":"horizons-trial","trial_index":176,"time_elapsed":2417037,"internal_node_id":"0.0-177.0"},{"horizon":5,"rewards_L":[47,60,55,62,64],"rewards_R":[35,52,47,70,49],"key_presses":["arrowleft","arrowright","arrowright","arrowright","arrowright"],"response_times":[408,229,349,513,426],"outcomes":[47,52,47,70,49],"screen_resolution":1,"trial_type":"horizons-trial","trial_index":177,"time_elapsed":2419526,"internal_node_id":"0.0-178.0"},{"horizon":5,"rewards_L":[62,81,60,62,60],"rewards_R":[75,64,55,70,52],"key_presses":["arrowright","arrowleft","arrowleft","arrowright","arrowleft"],"response_times":[425,310,547,471,695],"outcomes":[75,81,60,70,60],"screen_resolution":1,"trial_type":"horizons-trial","trial_index":178,"time_elapsed":2422591,"internal_node_id":"0.0-179.0"},{"horizon":5,"rewards_L":[65,60,75,45,58],"rewards_R":[83,82,92,71,64],"key_presses":["arrowright","arrowright","arrowleft","arrowright","arrowright"],"response_times":[399,302,525,266,419],"outcomes":[83,82,75,71,64],"screen_resolution":1,"trial_type":"horizons-trial","trial_index":179,"time_elapsed":2425234,"internal_node_id":"0.0-180.0"},{"horizon":5,"rewards_L":[0,10,0,6,17],"rewards_R":[42,48,49,63,33],"key_presses":["arrowright","arrowleft","arrowleft","arrowleft","arrowright"],"response_times":[556,259,793,660,345],"outcomes":[42,10,0,6,33],"screen_resolution":1,"trial_type":"horizons-trial","trial_index":180,"time_elapsed":2448244,"internal_node_id":"0.0-181.0"},{"horizon":10,"rewards_L":[82,76,79,78,93,71,72,83,77,84],"rewards_R":[65,67,52,52,61,47,71,66,62,52],"key_presses":["arrowleft","arrowleft","arrowright","arrowright","arrowleft","arrowleft","arrowleft","arrowleft","arrowleft","arrowleft"],"response_times":[473,424,434,546,229,383,212,248,347,284],"outcomes":[82,76,52,52,93,71,72,83,77,84],"screen_resolution":1,"trial_type":"horizons-trial","trial_index":181,"time_elapsed":2452603,"internal_node_id":"0.0-182.0"},{"horizon":5,"rewards_L":[44,48,37,41,44],"rewards_R":[33,27,27,16,15],"key_presses":["arrowleft","arrowleft","arrowleft","arrowright","arrowleft"],"response_times":[487,377,493,544,559],"outcomes":[44,48,37,16,44],"screen_resolution":1,"trial_type":"horizons-trial","trial_index":182,"time_elapsed":2455669,"internal_node_id":"0.0-183.0"},{"horizon":10,"rewards_L":[59,57,47,62,60,59,50,72,59,56],"rewards_R":[42,44,45,47,30,51,50,32,53,37],"key_presses":["arrowright","arrowleft","arrowright","arrowright","arrowleft","arrowleft","arrowleft","arrowleft","arrowleft","arrowleft"],"response_times":[440,226,196,596,206,500,321,434,279,423],"outcomes":[42,57,45,47,60,59,50,72,59,56],"screen_resolution":1,"trial_type":"horizons-trial","trial_index":183,"time_elapsed":2459913,"internal_node_id":"0.0-184.0"},{"horizon":10,"rewards_L":[57,50,77,69,52,47,68,54,66,68],"rewards_R":[16,22,27,34,20,14,23,34,34,29],"key_presses":["arrowleft","arrowright","arrowright","arrowleft","arrowleft","arrowleft","arrowleft","arrowleft","arrowleft","arrowleft"],"response_times":[1156,344,567,243,401,246,233,285,241,419],"outcomes":[57,22,27,69,52,47,68,54,66,68],"screen_resolution":1,"trial_type":"horizons-trial","trial_index":184,"time_elapsed":2464706,"internal_node_id":"0.0-185.0"},{"horizon":10,"rewards_L":[40,49,58,49,68,48,46,55,35,54],"rewards_R":[59,58,45,68,63,57,49,62,49,75],"key_presses":["arrowright","arrowleft","arrowleft","arrowright","arrowright","arrowright","arrowright","arrowright","arrowright","arrowright"],"response_times":[516,258,497,377,16403,574,474,387,566,1047],"outcomes":[59,49,58,68,63,57,49,62,49,75],"screen_resolution":1,"trial_type":"horizons-trial","trial_index":185,"time_elapsed":2486523,"internal_node_id":"0.0-186.0"},{"horizon":5,"rewards_L":[81,80,74,72,76],"rewards_R":[32,36,38,36,32],"key_presses":["arrowright","arrowleft","arrowright","arrowleft","arrowleft"],"response_times":[645,304,298,392,484],"outcomes":[32,80,38,72,76],"screen_resolution":1,"trial_type":"horizons-trial","trial_index":186,"time_elapsed":2489459,"internal_node_id":"0.0-187.0"},{"horizon":5,"rewards_L":[29,37,21,23,31],"rewards_R":[27,39,44,48,33],"key_presses":["arrowright","arrowright","arrowright","arrowleft","arrowright"],"response_times":[1544951,563,766,552,621],"outcomes":[27,39,44,23,33],"screen_resolution":1,"trial_type":"horizons-trial","trial_index":187,"time_elapsed":4037424,"internal_node_id":"0.0-188.0"},{"horizon":5,"rewards_L":[72,56,58,54,56],"rewards_R":[43,63,63,53,47],"key_presses":["arrowleft","arrowleft","arrowright","arrowleft","arrowleft"],"response_times":[1080,933,521,378,24182],"outcomes":[72,56,63,54,56],"screen_resolution":1,"trial_type":"horizons-trial","trial_index":188,"time_elapsed":4065360,"internal_node_id":"0.0-189.0"},{"horizon":10,"rewards_L":[49,39,52,51,44,42,57,48,61,69],"rewards_R":[55,58,66,38,68,59,56,56,61,58],"key_presses":["arrowright","arrowleft","arrowright","arrowleft","arrowright","arrowright","arrowright","arrowright","arrowright","arrowright"],"response_times":[584,311,313,838,267,429,320,423,378,445],"outcomes":[55,39,66,51,68,59,56,56,61,58],"screen_resolution":1,"trial_type":"horizons-trial","trial_index":189,"time_elapsed":4070230,"internal_node_id":"0.0-190.0"},{"horizon":5,"rewards_L":[30,46,43,42,36],"rewards_R":[60,39,43,56,40],"key_presses":["arrowleft","arrowright","arrowleft","arrowright","arrowright"],"response_times":[93981,376,421,432,708],"outcomes":[30,39,43,56,40],"screen_resolution":1,"trial_type":"horizons-trial","trial_index":190,"time_elapsed":4166917,"internal_node_id":"0.0-191.0"},{"horizon":5,"rewards_L":[34,47,32,45,41],"rewards_R":[58,60,60,58,68],"key_presses":["arrowright","arrowleft","arrowright","arrowleft","arrowright"],"response_times":[485,252,294,760,338],"outcomes":[58,47,60,45,68],"screen_resolution":1,"trial_type":"horizons-trial","trial_index":191,"time_elapsed":4169581,"internal_node_id":"0.0-192.0"},{"horizon":10,"rewards_L":[57,68,57,68,67,67,44,48,61,54],"rewards_R":[36,47,35,46,72,37,52,56,29,54],"key_presses":["arrowleft","arrowright","arrowright","arrowleft","arrowleft","arrowleft","arrowleft","arrowleft","arrowleft","arrowleft"],"response_times":[1278,320,520,214,752,371,158,183,453,393],"outcomes":[57,47,35,68,67,67,44,48,61,54],"screen_resolution":1,"trial_type":"horizons-trial","trial_index":192,"time_elapsed":4174810,"internal_node_id":"0.0-193.0"},{"horizon":5,"rewards_L":[54,68,51,67,55],"rewards_R":[46,37,29,46,52],"key_presses":["arrowright","arrowleft","arrowleft","arrowright","arrowleft"],"response_times":[462,278,335,494,703],"outcomes":[46,68,51,46,55],"screen_resolution":1,"trial_type":"horizons-trial","trial_index":193,"time_elapsed":4177708,"internal_node_id":"0.0-194.0"},{"horizon":10,"rewards_L":[71,63,65,66,74,76,66,56,77,59],"rewards_R":[49,42,36,34,26,44,32,37,30,54],"key_presses":["arrowleft","arrowleft","arrowright","arrowleft","arrowleft","arrowleft","arrowleft","arrowleft","arrowleft","arrowleft"],"response_times":[381,358,463,211,371,192,235,207,251,324],"outcomes":[71,63,36,66,74,76,66,56,77,59],"screen_resolution":1,"trial_type":"horizons-trial","trial_index":194,"time_elapsed":4181350,"internal_node_id":"0.0-195.0"},{"horizon":10,"rewards_L":[44,38,28,32,22,46,34,47,32,33],"rewards_R":[58,55,52,62,45,56,40,60,62,53],"key_presses":["arrowright","arrowleft","arrowleft","arrowright","arrowleft","arrowright","arrowright","arrowright","arrowright","arrowright"],"response_times":[12602,386,334,298,392,528,395,396,385,510],"outcomes":[58,38,28,62,22,56,40,60,62,53],"screen_resolution":1,"trial_type":"horizons-trial","trial_index":195,"time_elapsed":4198080,"internal_node_id":"0.0-196.0"},{"horizon":10,"rewards_L":[42,43,58,49,61,46,49,53,52,47],"rewards_R":[65,51,62,54,58,56,53,74,63,63],"key_presses":["arrowright","arrowright","arrowright","arrowleft","arrowright","arrowright","arrowright","arrowright","arrowright","arrowright"],"response_times":[448,470,416,290,341,267,306,263,274,339],"outcomes":[65,51,62,49,58,56,53,74,63,63],"screen_resolution":1,"trial_type":"horizons-trial","trial_index":196,"time_elapsed":4202068,"internal_node_id":"0.0-197.0"},{"horizon":10,"rewards_L":[84,64,67,62,62,67,69,70,61,62],"rewards_R":[57,61,60,43,63,55,59,50,62,58],"key_presses":["arrowright","arrowleft","arrowright","arrowright","arrowleft","arrowleft","arrowleft","arrowleft","arrowleft","arrowleft"],"response_times":[418,257,260,546,304,724,383,359,402,326],"outcomes":[57,64,60,43,62,67,69,70,61,62],"screen_resolution":1,"trial_type":"horizons-trial","trial_index":197,"time_elapsed":4206866,"internal_node_id":"0.0-198.0"},{"horizon":10,"rewards_L":[45,45,66,56,46,55,49,65,69,74],"rewards_R":[93,88,93,77,92,96,79,94,92,98],"key_presses":["arrowright","arrowright","arrowleft","arrowright","arrowright","arrowright","arrowright","arrowright","arrowright","arrowright"],"response_times":[367,372,287,74,321,184,170,188,231,271],"outcomes":[93,88,66,77,92,96,79,94,92,98],"screen_resolution":1,"trial_type":"horizons-trial","trial_index":198,"time_elapsed":4209876,"internal_node_id":"0.0-199.0"},{"horizon":10,"rewards_L":[81,84,71,71,80,84,75,89,84,98],"rewards_R":[60,56,71,53,66,51,43,71,60,68],"key_presses":["arrowright","arrowleft","arrowleft","arrowright","arrowleft","arrowleft","arrowleft","arrowleft","arrowleft","arrowleft"],"response_times":[535,286,576,293,238,224,187,245,297,264],"outcomes":[60,84,71,53,80,84,75,89,84,98],"screen_resolution":1,"trial_type":"horizons-trial","trial_index":199,"time_elapsed":4213663,"internal_node_id":"0.0-200.0"},{"horizon":5,"rewards_L":[31,34,25,24,50],"rewards_R":[58,68,71,44,57],"key_presses":["arrowleft","arrowleft","arrowright","arrowright","arrowright"],"response_times":[617,773,338,831,481],"outcomes":[31,34,71,44,57],"screen_resolution":1,"trial_type":"horizons-trial","trial_index":200,"time_elapsed":4217226,"internal_node_id":"0.0-201.0"},{"horizon":10,"rewards_L":[24,40,48,45,40,41,29,35,30,35],"rewards_R":[16,9,28,12,18,9,21,12,11,11],"key_presses":["arrowleft","arrowleft","arrowleft","arrowright","arrowleft","arrowright","arrowleft","arrowleft","arrowleft","arrowleft"],"response_times":[505,469,558,270,377,482,204,295,298,356],"outcomes":[24,40,48,12,40,9,29,35,30,35],"screen_resolution":1,"trial_type":"horizons-trial","trial_index":201,"time_elapsed":4221590,"internal_node_id":"0.0-202.0"},{"horizon":10,"rewards_L":[44,55,25,37,65,39,44,33,37,44],"rewards_R":[30,11,43,22,42,22,27,20,19,33],"key_presses":["arrowleft","arrowleft","arrowleft","arrowright","arrowleft","arrowleft","arrowleft","arrowleft","arrowleft","arrowleft"],"response_times":[688,462,364,430,249,225,244,301,288,630],"outcomes":[44,55,25,22,65,39,44,33,37,44],"screen_resolution":1,"trial_type":"horizons-trial","trial_index":202,"time_elapsed":4226056,"internal_node_id":"0.0-203.0"},{"horizon":10,"rewards_L":[59,65,67,65,53,58,56,58,52,61],"rewards_R":[68,70,83,77,79,73,69,81,75,77],"key_presses":["arrowright","arrowleft","arrowright","arrowleft","arrowright","arrowright","arrowright","arrowright","arrowright","arrowright"],"response_times":[542,242,310,280,308,246,220,235,277,421],"outcomes":[68,65,83,65,79,73,69,81,75,77],"screen_resolution":1,"trial_type":"horizons-trial","trial_index":203,"time_elapsed":4229683,"internal_node_id":"0.0-204.0"},{"horizon":10,"rewards_L":[67,68,76,60,62,72,70,68,58,72],"rewards_R":[64,64,51,60,79,68,52,76,59,68],"key_presses":["arrowleft","arrowleft","arrowright","arrowleft","arrowright","arrowleft","arrowright","arrowleft","arrowleft","arrowleft"],"response_times":[1094,7760,664,303,619,243,441,476,715,556],"outcomes":[67,68,51,60,79,72,52,68,58,72],"screen_resolution":1,"trial_type":"horizons-trial","trial_index":204,"time_elapsed":4243350,"internal_node_id":"0.0-205.0"},{"horizon":5,"rewards_L":[28,19,32,24,41],"rewards_R":[44,37,46,36,47],"key_presses":["arrowleft","arrowleft","arrowright","arrowright","arrowright"],"response_times":[702,554,344,408,371],"outcomes":[28,19,46,36,47],"screen_resolution":1,"trial_type":"horizons-trial","trial_index":205,"time_elapsed":4246675,"internal_node_id":"0.0-206.0"},{"horizon":10,"rewards_L":[56,50,64,50,54,62,61,59,77,46],"rewards_R":[67,58,47,50,50,57,47,50,46,41],"key_presses":["arrowleft","arrowleft","arrowright","arrowright","arrowleft","arrowright","arrowleft","arrowleft","arrowleft","arrowleft"],"response_times":[71598,320,257,504,213,318,267,524,351,429],"outcomes":[56,50,47,50,54,57,61,59,77,46],"screen_resolution":1,"trial_type":"horizons-trial","trial_index":206,"time_elapsed":4502762,"internal_node_id":"0.0-207.0"},{"horizon":5,"rewards_L":[38,26,31,46,40],"rewards_R":[11,28,2,19,20],"key_presses":["arrowleft","arrowleft","arrowright","arrowright","arrowleft"],"response_times":[1277,844,892,1226,633],"outcomes":[38,26,2,19,40],"screen_resolution":1,"trial_type":"horizons-trial","trial_index":207,"time_elapsed":4544062,"internal_node_id":"0.0-208.0"},{"horizon":10,"rewards_L":[2,3,23,17,7,14,6,0,6,12],"rewards_R":[49,37,55,48,46,40,42,41,41,59],"key_presses":["arrowright","arrowleft","arrowleft","arrowleft","arrowright","arrowright","arrowright","arrowright","arrowright","arrowright"],"response_times":[1944,347,364,469,242,759,516,449,417,440],"outcomes":[49,3,23,17,46,40,42,41,41,59],"screen_resolution":1,"trial_type":"horizons-trial","trial_index":208,"time_elapsed":4550614,"internal_node_id":"0.0-209.0"},{"horizon":5,"rewards_L":[62,61,68,54,58],"rewards_R":[60,42,37,63,59],"key_presses":["arrowleft","arrowleft","arrowleft","arrowright","arrowleft"],"response_times":[806,417,376,407,357],"outcomes":[62,61,68,63,58],"screen_resolution":1,"trial_type":"horizons-trial","trial_index":209,"time_elapsed":4553561,"internal_node_id":"0.0-210.0"},{"horizon":5,"rewards_L":[83,72,78,48,73],"rewards_R":[59,57,68,53,57],"key_presses":["arrowleft","arrowright","arrowright","arrowleft","arrowleft"],"response_times":[5253,371,579,337,1323],"outcomes":[83,57,68,48,73],"screen_resolution":1,"trial_type":"horizons-trial","trial_index":210,"time_elapsed":4561962,"internal_node_id":"0.0-211.0"},{"horizon":10,"rewards_L":[52,57,43,66,59,59,53,66,65,57],"rewards_R":[61,62,65,71,67,50,59,74,63,65],"key_presses":["arrowleft","arrowright","arrowleft","arrowleft","arrowright","arrowleft","arrowright","arrowleft","arrowleft","arrowleft"],"response_times":[310,498,232,341,329,313,511,1333617,678,535],"outcomes":[52,62,43,66,67,59,59,66,65,57],"screen_resolution":1,"trial_type":"horizons-trial","trial_index":211,"time_elapsed":5900359,"internal_node_id":"0.0-212.0"},{"horizon":5,"rewards_L":[61,68,48,43,49],"rewards_R":[87,60,75,67,58],"key_presses":["arrowright","arrowleft","arrowright","arrowleft","arrowright"],"response_times":[475,368,335,666,379],"outcomes":[87,68,75,43,58],"screen_resolution":1,"trial_type":"horizons-trial","trial_index":212,"time_elapsed":5903268,"internal_node_id":"0.0-213.0"},{"horizon":5,"rewards_L":[20,14,0,12,27],"rewards_R":[49,30,52,46,40],"key_presses":["arrowright","arrowleft","arrowleft","arrowright","arrowright"],"response_times":[621,274,631,291,258],"outcomes":[49,14,0,46,40],"screen_resolution":1,"trial_type":"horizons-trial","trial_index":213,"time_elapsed":5905847,"internal_node_id":"0.0-214.0"},{"horizon":5,"rewards_L":[65,75,58,74,75],"rewards_R":[52,52,54,72,48],"key_presses":["arrowright","arrowleft","arrowright","arrowright","arrowleft"],"response_times":[420,315,259,780,970],"outcomes":[52,75,54,72,75],"screen_resolution":1,"trial_type":"horizons-trial","trial_index":214,"time_elapsed":5909443,"internal_node_id":"0.0-215.0"},{"horizon":10,"rewards_L":[35,40,39,49,45,32,27,43,43,36],"rewards_R":[31,36,40,48,40,53,46,44,42,61],"key_presses":["arrowleft","arrowright","arrowright","arrowleft","arrowright","arrowright","arrowleft","arrowright","arrowright","arrowright"],"response_times":[629,306,367,481,254,307,277,490,278,313],"outcomes":[35,36,40,49,40,53,27,44,42,61],"screen_resolution":1,"trial_type":"horizons-trial","trial_index":215,"time_elapsed":5913867,"internal_node_id":"0.0-216.0"},{"horizon":5,"rewards_L":[67,61,66,68,61],"rewards_R":[52,43,46,61,49],"key_presses":["arrowleft","arrowright","arrowleft","arrowright","arrowleft"],"response_times":[512,295,357,549,329],"outcomes":[67,43,66,61,61],"screen_resolution":1,"trial_type":"horizons-trial","trial_index":216,"time_elapsed":5916591,"internal_node_id":"0.0-217.0"},{"horizon":5,"rewards_L":[56,43,39,35,42],"rewards_R":[67,78,54,58,62],"key_presses":["arrowright","arrowright","arrowleft","arrowleft","arrowright"],"response_times":[436,449,437,717,398],"outcomes":[67,78,39,35,62],"screen_resolution":1,"trial_type":"horizons-trial","trial_index":217,"time_elapsed":5919872,"internal_node_id":"0.0-218.0"},{"horizon":5,"rewards_L":[49,52,40,37,58],"rewards_R":[47,41,34,40,45],"key_presses":["arrowright","arrowleft","arrowright","arrowright","arrowleft"],"response_times":[480,270,315,568,1359],"outcomes":[47,52,34,40,58],"screen_resolution":1,"trial_type":"horizons-trial","trial_index":218,"time_elapsed":5923543,"internal_node_id":"0.0-219.0"},{"horizon":10,"rewards_L":[54,48,62,64,73,46,70,63,58,63],"rewards_R":[74,70,70,74,55,63,78,61,59,54],"key_presses":["arrowright","arrowright","arrowleft","arrowright","arrowright","arrowleft","arrowright","arrowright","arrowright","arrowright"],"response_times":[487,458,287,283,190,303,266,522,267,430],"outcomes":[74,70,62,74,55,46,78,61,59,54],"screen_resolution":1,"trial_type":"horizons-trial","trial_index":219,"time_elapsed":5927618,"internal_node_id":"0.0-220.0"},{"horizon":5,"rewards_L":[63,72,63,64,56],"rewards_R":[55,59,65,73,52],"key_presses":["arrowleft","arrowright","arrowleft","arrowright","arrowright"],"response_times":[356,256,241,365,1056],"outcomes":[63,59,63,73,52],"screen_resolution":1,"trial_type":"horizons-trial","trial_index":220,"time_elapsed":5930435,"internal_node_id":"0.0-221.0"},{"horizon":10,"rewards_L":[96,88,81,93,89,97,100,97,89,95],"rewards_R":[51,56,78,49,58,48,64,58,51,57],"key_presses":["arrowleft","arrowleft","arrowright","arrowleft","arrowleft","arrowleft","arrowleft","arrowleft","arrowleft","arrowleft"],"response_times":[624,462,367,219,286,233,178,275,436,301],"outcomes":[96,88,78,93,89,97,100,97,89,95],"screen_resolution":1,"trial_type":"horizons-trial","trial_index":221,"time_elapsed":5934335,"internal_node_id":"0.0-222.0"},{"horizon":5,"rewards_L":[43,54,51,74,55],"rewards_R":[79,84,79,72,67],"key_presses":["arrowleft","arrowright","arrowleft","arrowleft","arrowright"],"response_times":[931,276,372,659,454],"outcomes":[43,84,51,74,67],"screen_resolution":1,"trial_type":"horizons-trial","trial_index":222,"time_elapsed":5937596,"internal_node_id":"0.0-223.0"},{"horizon":5,"rewards_L":[48,65,70,64,47],"rewards_R":[66,59,61,63,63],"key_presses":["arrowright","arrowleft","arrowright","arrowleft","arrowleft"],"response_times":[676,278,313,355,1394],"outcomes":[66,65,61,64,47],"screen_resolution":1,"trial_type":"horizons-trial","trial_index":223,"time_elapsed":5941375,"internal_node_id":"0.0-224.0"},{"horizon":10,"rewards_L":[62,59,51,52,56,69,75,59,61,73],"rewards_R":[62,65,58,51,80,65,54,62,53,60],"key_presses":["arrowleft","arrowright","arrowright","arrowleft","arrowright","arrowleft","arrowright","arrowright","arrowright","arrowright"],"response_times":[576,265,597,225,312,174,454,409,1677,1538],"outcomes":[62,65,58,52,80,69,54,62,53,60],"screen_resolution":1,"trial_type":"horizons-trial","trial_index":224,"time_elapsed":5948494,"internal_node_id":"0.0-225.0"},{"horizon":10,"rewards_L":[34,42,57,58,40,43,47,39,56,41],"rewards_R":[59,56,67,56,49,43,52,50,52,53],"key_presses":["arrowright","arrowright","arrowleft","arrowleft","arrowright","arrowleft","arrowright","arrowleft","arrowright","arrowright"],"response_times":[595,528,587,482,260,279,375,602,669,602],"outcomes":[59,56,57,58,49,43,52,39,52,53],"screen_resolution":1,"trial_type":"horizons-trial","trial_index":225,"time_elapsed":5954203,"internal_node_id":"0.0-226.0"},{"horizon":10,"rewards_L":[45,42,42,37,51,41,39,33,48,43],"rewards_R":[20,25,8,6,22,19,27,15,14,6],"key_presses":["arrowright","arrowleft","arrowleft","arrowright","arrowleft","arrowleft","arrowleft","arrowleft","arrowleft","arrowleft"],"response_times":[510,222,592,276,284,403,319,264,289,560],"outcomes":[20,42,42,6,51,41,39,33,48,43],"screen_resolution":1,"trial_type":"horizons-trial","trial_index":226,"time_elapsed":5958598,"internal_node_id":"0.0-227.0"},{"horizon":5,"rewards_L":[59,65,61,55,60],"rewards_R":[33,48,40,42,34],"key_presses":["arrowleft","arrowleft","arrowleft","arrowright","arrowleft"],"response_times":[489,467,267,614,746],"outcomes":[59,65,61,42,60],"screen_resolution":1,"trial_type":"horizons-trial","trial_index":227,"time_elapsed":5961828,"internal_node_id":"0.0-228.0"},{"horizon":10,"rewards_L":[49,38,55,52,47,40,47,44,52,57],"rewards_R":[58,66,59,38,68,64,66,56,52,55],"key_presses":["arrowright","arrowright","arrowright","arrowleft","arrowright","arrowright","arrowright","arrowright","arrowright","arrowright"],"response_times":[430,475,447,285,333,522,406,390,414,592],"outcomes":[58,66,59,52,68,64,66,56,52,55],"screen_resolution":1,"trial_type":"horizons-trial","trial_index":228,"time_elapsed":5966836,"internal_node_id":"0.0-229.0"},{"horizon":5,"rewards_L":[45,35,55,50,49],"rewards_R":[51,51,61,78,57],"key_presses":["arrowright","arrowleft","arrowleft","arrowright","arrowright"],"response_times":[369,301,572,247,620],"outcomes":[51,35,55,78,57],"screen_resolution":1,"trial_type":"horizons-trial","trial_index":229,"time_elapsed":5969646,"internal_node_id":"0.0-230.0"},{"horizon":10,"rewards_L":[50,27,50,37,43,55,38,49,27,55],"rewards_R":[61,72,74,79,75,90,64,73,66,64],"key_presses":["arrowleft","arrowright","arrowright","arrowleft","arrowright","arrowright","arrowright","arrowright","arrowright","arrowright"],"response_times":[434,272,489,314,215,337,297,252,260,384],"outcomes":[50,72,74,37,75,90,64,73,66,64],"screen_resolution":1,"trial_type":"horizons-trial","trial_index":230,"time_elapsed":5973483,"internal_node_id":"0.0-231.0"},{"horizon":5,"rewards_L":[61,53,53,61,66],"rewards_R":[99,92,98,87,87],"key_presses":["arrowright","arrowleft","arrowright","arrowleft","arrowright"],"response_times":[404,230,234,690,321],"outcomes":[99,53,98,61,87],"screen_resolution":1,"trial_type":"horizons-trial","trial_index":231,"time_elapsed":5976038,"internal_node_id":"0.0-232.0"},{"horizon":10,"rewards_L":[27,29,47,24,29,34,28,30,29,16],"rewards_R":[45,31,38,40,38,33,42,38,49,30],"key_presses":["arrowright","arrowright","arrowleft","arrowleft","arrowright","arrowright","arrowleft","arrowright","arrowright","arrowright"],"response_times":[303,380,463,556,241,282,355,158,495,388],"outcomes":[45,31,47,24,38,33,28,38,49,30],"screen_resolution":1,"trial_type":"horizons-trial","trial_index":232,"time_elapsed":5980228,"internal_node_id":"0.0-233.0"},{"horizon":5,"rewards_L":[26,48,41,38,30],"rewards_R":[0,8,10,0,15],"key_presses":["arrowleft","arrowright","arrowright","arrowleft","arrowleft"],"response_times":[657,208,803,381,637],"outcomes":[26,8,10,38,30],"screen_resolution":1,"trial_type":"horizons-trial","trial_index":233,"time_elapsed":5983534,"internal_node_id":"0.0-234.0"},{"horizon":5,"rewards_L":[40,39,26,28,31],"rewards_R":[69,69,63,62,67],"key_presses":["arrowleft","arrowright","arrowleft","arrowleft","arrowright"],"response_times":[355,265,280,659,566],"outcomes":[40,69,26,28,67],"screen_resolution":1,"trial_type":"horizons-trial","trial_index":234,"time_elapsed":5986374,"internal_node_id":"0.0-235.0"},{"horizon":10,"rewards_L":[63,63,65,56,59,43,64,50,51,63],"rewards_R":[49,50,54,39,50,58,46,45,41,61],"key_presses":["arrowright","arrowright","arrowleft","arrowleft","arrowright","arrowleft","arrowright","arrowleft","arrowright","arrowleft"],"response_times":[638,452,295,622,235,346,304,264,334,1093],"outcomes":[49,50,65,56,50,43,46,50,41,63],"screen_resolution":1,"trial_type":"horizons-trial","trial_index":235,"time_elapsed":5991483,"internal_node_id":"0.0-236.0"},{"horizon":10,"rewards_L":[51,54,64,51,51,67,54,61,60,53],"rewards_R":[44,37,46,42,47,38,17,40,30,35],"key_presses":["arrowleft","arrowright","arrowright","arrowright","arrowleft","arrowright","arrowleft","arrowleft","arrowleft","arrowleft"],"response_times":[494,284,460,509,187,659,280,377,375,551],"outcomes":[51,37,46,42,51,38,54,61,60,53],"screen_resolution":1,"trial_type":"horizons-trial","trial_index":236,"time_elapsed":5996238,"internal_node_id":"0.0-237.0"},{"horizon":5,"rewards_L":[52,84,69,70,63],"rewards_R":[36,29,50,36,52],"key_presses":["arrowleft","arrowleft","arrowright","arrowleft","arrowleft"],"response_times":[447,526,274,284,320],"outcomes":[52,84,50,70,63],"screen_resolution":1,"trial_type":"horizons-trial","trial_index":237,"time_elapsed":5998821,"internal_node_id":"0.0-238.0"},{"horizon":10,"rewards_L":[84,70,89,71,75,75,92,88,64,74],"rewards_R":[56,36,61,47,61,55,47,75,71,75],"key_presses":["arrowright","arrowleft","arrowright","arrowright","arrowleft","arrowleft","arrowleft","arrowleft","arrowleft","arrowleft"],"response_times":[459,264,283,577,160,540,249,234,311,326],"outcomes":[56,70,61,47,75,75,92,88,64,74],"screen_resolution":1,"trial_type":"horizons-trial","trial_index":238,"time_elapsed":6002831,"internal_node_id":"0.0-239.0"},{"horizon":10,"rewards_L":[32,35,41,51,45,34,41,41,42,39],"rewards_R":[43,45,46,53,37,46,54,40,36,54],"key_presses":["arrowright","arrowright","arrowleft","arrowright","arrowleft","arrowright","arrowleft","arrowright","arrowright","arrowright"],"response_times":[551,436,168,513,210,138,145,116,821,1053],"outcomes":[43,45,41,53,45,46,41,40,36,54],"screen_resolution":1,"trial_type":"horizons-trial","trial_index":239,"time_elapsed":6007810,"internal_node_id":"0.0-240.0"},{"horizon":5,"rewards_L":[56,45,46,64,64],"rewards_R":[50,34,45,60,28],"key_presses":["arrowleft","arrowleft","arrowright","arrowleft","arrowleft"],"response_times":[517,509,331,285,533],"outcomes":[56,45,45,64,64],"screen_resolution":1,"trial_type":"horizons-trial","trial_index":240,"time_elapsed":6010590,"internal_node_id":"0.0-241.0"},{"horizon":5,"rewards_L":[53,47,58,62,71],"rewards_R":[58,58,61,55,48],"key_presses":["arrowleft","arrowright","arrowleft","arrowright","arrowleft"],"response_times":[337,268,287,364,389],"outcomes":[53,58,58,55,71],"screen_resolution":1,"trial_type":"horizons-trial","trial_index":241,"time_elapsed":6012877,"internal_node_id":"0.0-242.0"},{"horizon":5,"rewards_L":[21,49,44,43,41],"rewards_R":[44,62,57,70,64],"key_presses":["arrowright","arrowleft","arrowright","arrowleft","arrowright"],"response_times":[398,245,368,697,552],"outcomes":[44,49,57,43,64],"screen_resolution":1,"trial_type":"horizons-trial","trial_index":242,"time_elapsed":6015856,"internal_node_id":"0.0-243.0"},{"horizon":5,"rewards_L":[74,75,80,75,68],"rewards_R":[55,57,66,63,54],"key_presses":["arrowright","arrowleft","arrowright","arrowright","arrowleft"],"response_times":[438,381,534,715,734],"outcomes":[55,75,66,63,68],"screen_resolution":1,"trial_type":"horizons-trial","trial_index":243,"time_elapsed":6019181,"internal_node_id":"0.0-244.0"},{"horizon":5,"rewards_L":[35,35,38,24,33],"rewards_R":[12,31,28,41,10],"key_presses":["arrowleft","arrowright","arrowright","arrowright","arrowleft"],"response_times":[411,305,650,691,776],"outcomes":[35,31,28,41,33],"screen_resolution":1,"trial_type":"horizons-trial","trial_index":244,"time_elapsed":6022547,"internal_node_id":"0.0-245.0"},{"horizon":5,"rewards_L":[60,59,64,61,52],"rewards_R":[28,23,34,26,46],"key_presses":["arrowleft","arrowleft","arrowleft","arrowright","arrowleft"],"response_times":[322,361,453,471,292],"outcomes":[60,59,64,26,52],"screen_resolution":1,"trial_type":"horizons-trial","trial_index":245,"time_elapsed":6024969,"internal_node_id":"0.0-246.0"},{"horizon":10,"rewards_L":[33,39,48,31,44,32,26,35,40,49],"rewards_R":[53,54,46,53,53,71,72,46,57,58],"key_presses":["arrowleft","arrowleft","arrowright","arrowright","arrowleft","arrowright","arrowleft","arrowright","arrowright","arrowright"],"response_times":[381,328,363,586,139,149,109,589,838,416],"outcomes":[33,39,46,53,44,71,26,46,57,58],"screen_resolution":1,"trial_type":"horizons-trial","trial_index":246,"time_elapsed":6029392,"internal_node_id":"0.0-247.0"},{"horizon":5,"rewards_L":[38,57,46,50,65],"rewards_R":[73,83,79,74,77],"key_presses":["arrowleft","arrowright","arrowri