[{"success":true,"timeout":false,"failed_images":[],"failed_audio":[],"failed_video":[],"trial_type":"preload","trial_index":0,"time_elapsed":2,"internal_node_id":"0.0-0.0"},{"success":true,"trial_type":"fullscreen","trial_index":1,"time_elapsed":2030,"internal_node_id":"0.0-1.0"},{"rt":4590,"stimulus":"<p>你将开始实验 実験を開始します<b>Horizons task.</b></p><p>查看说明请按 “1” 键，跳过说明请按 “2” 键。説明を見るには “1” キーを押してください。スキップするには “2” キーを押してください。</p>","response":"1","trial_type":"html-keyboard-response","trial_index":2,"time_elapsed":6621,"internal_node_id":"0.0-2.0"},{"view_history":[{"page_index":0,"viewing_time":3089},{"page_index":1,"viewing_time":3969},{"page_index":2,"viewing_time":2237},{"page_index":3,"viewing_time":1763},{"page_index":2,"viewing_time":5954},{"page_index":3,"viewing_time":1691},{"page_index":4,"viewing_time":2224},{"page_index":5,"viewing_time":2584},{"page_index":6,"viewing_time":3113},{"page_index":7,"viewing_time":7602},{"page_index":8,"viewing_time":4706},{"page_index":9,"viewing_time":16800}],"rt":55731,"trial_type":"instructions","trial_index":3,"time_elapsed":62352,"internal_node_id":"0.0-3.0-0.0"},{"horizon":5,"rewards_L":[44,57,74,72,62],"rewards_R":[31,33,24,39,29],"key_presses":["arrowright","arrowleft","arrowright","arrowright","arrowleft"],"response_times":[583,505,593,544,846],"outcomes":[31,57,24,39,62],"screen_resolution":1,"phase":"practice","trial_type":"horizons-trial","trial_index":4,"time_elapsed":69219,"internal_node_id":"0.0-3.0-1.0"},{"horizon":10,"rewards_L":[64,50,57,35,52,38,44,61,39,38],"rewards_R":[70,69,76,71,75,58,81,84,57,61],"key_presses":["arrowleft","arrowleft","arrowright","arrowright","arrowleft","arrowright","arrowright","arrowleft","arrowright","arrowright"],"response_times":[708,641,405,382,1339,499,460,432,800,3694],"outcomes":[64,50,76,71,52,58,81,61,57,61],"screen_resolution":1,"phase":"practice","trial_type":"horizons-trial","trial_index":5,"time_elapsed":80203,"internal_node_id":"0.0-3.0-2.0"},{"view_history":[{"page_index":0,"viewing_time":1299},{"page_index":1,"viewing_time":1682},{"page_index":2,"viewing_time":2111},{"page_index":3,"viewing_time":1253}],"rt":6345,"trial_type":"instructions","trial_index":6,"time_elapsed":86548,"internal_node_id":"0.0-3.0-3.0"},{"responses":["true","false","true"],"num_errors":0,"rt":10870.40000000596,"trial_type":"horizons-comprehension","trial_index":7,"time_elapsed":97419,"internal_node_id":"0.0-3.0-4.0"},{"view_history":[{"page_index":0,"viewing_time":1559},{"page_index":1,"viewing_time":2381}],"rt":3940,"trial_type":"instructions","trial_index":8,"time_elapsed":101359,"internal_node_id":"0.0-4.0"},{"horizon":5,"rewards_L":[62,53,41,54,57],"rewards_R":[44,45,51,40,42],"key_presses":["arrowright","arrowright","arrowleft","arrowleft","arrowleft"],"response_times":[1117,537,463,465,3793],"outcomes":[44,45,41,54,57],"screen_resolution":1,"trial_type":"horizons-trial","trial_index":9,"time_elapsed":109111,"internal_node_id":"0.0-5.0"},{"horizon":5,"rewards_L":[20,39,38,42,30],"rewards_R":[52,41,43,48,48],"key_presses":["arrowright","arrowleft","arrowleft","arrowright","arrowright"],"response_times":[546,441,457,534,2221],"outcomes":[52,39,38,48,48],"screen_resolution":1,"trial_type":"horizons-trial","trial_index":10,"time_elapsed":114551,"internal_node_id":"0.0-6.0"},{"horizon":5,"rewards_L":[24,26,40,26,23],"rewards_R":[35,45,70,36,43],"key_presses":["arrowleft","arrowright","arrowright","arrowleft","arrowright"],"response_times":[510,370,448,480,640],"outcomes":[24,45,70,26,43],"screen_resolution":1,"trial_type":"horizons-trial","trial_index":11,"time_elapsed":117655,"internal_node_id":"0.0-7.0"},{"horizon":10,"rewards_L":[23,39,46,36,28,44,44,32,38,30],"rewards_R":[39,51,55,37,37,31,32,39,36,49],"key_presses":["arrowright","arrowleft","arrowleft","arrowright","arrowleft","arrowright","arrowleft","arrowleft","arrowright","arrowleft"],"response_times":[528,672,392,447,2019,1305,5125,799,1115,1269],"outcomes":[39,39,46,37,28,31,44,32,36,30],"screen_resolution":1,"trial_type":"horizons-trial","trial_index":12,"time_elapsed":132262,"internal_node_id":"0.0-8.0"},{"horizon":5,"rewards_L":[22,28,28,29,42],"rewards_R":[39,44,41,39,31],"key_presses":["arrowright","arrowright","arrowright","arrowleft","arrowright"],"response_times":[657,485,1227,1119,896],"outcomes":[39,44,41,29,31],"screen_resolution":1,"trial_type":"horizons-trial","trial_index":13,"time_elapsed":137271,"internal_node_id":"0.0-9.0"},{"horizon":10,"rewards_L":[63,65,53,63,70,55,79,83,67,71],"rewards_R":[70,53,58,62,69,70,60,67,71,55],"key_presses":["arrowright","arrowleft","arrowright","arrowleft","arrowright","arrowright","arrowright","arrowleft","arrowleft","arrowright"],"response_times":[473,415,481,442,603,4586,744,1536,1048,467],"outcomes":[70,65,58,63,69,70,60,83,67,55],"screen_resolution":1,"trial_type":"horizons-trial","trial_index":14,"time_elapsed":149271,"internal_node_id":"0.0-10.0"},{"horizon":10,"rewards_L":[56,60,54,54,42,53,43,51,46,36],"rewards_R":[54,40,44,28,28,48,32,39,42,39],"key_presses":["arrowright","arrowleft","arrowright","arrowright","arrowright","arrowleft","arrowleft","arrowleft","arrowleft","arrowleft"],"response_times":[370,434,510,540,521,994,504,1720,596,761],"outcomes":[54,60,44,28,28,53,43,51,46,36],"screen_resolution":1,"trial_type":"horizons-trial","trial_index":15,"time_elapsed":156890,"internal_node_id":"0.0-11.0"},{"horizon":10,"rewards_L":[49,59,36,68,53,63,62,44,61,45],"rewards_R":[48,50,34,34,40,44,26,36,36,35],"key_presses":["arrowleft","arrowleft","arrowleft","arrowright","arrowright","arrowleft","arrowleft","arrowleft","arrowright","arrowleft"],"response_times":[893,484,389,397,1999,1259,1067,790,1025,623],"outcomes":[49,59,36,34,40,63,62,44,36,45],"screen_resolution":1,"trial_type":"horizons-trial","trial_index":16,"time_elapsed":166544,"internal_node_id":"0.0-12.0"},{"horizon":10,"rewards_L":[49,28,40,37,55,60,39,44,34,37],"rewards_R":[39,42,48,34,41,42,40,51,54,41],"key_presses":["arrowright","arrowleft","arrowright","arrowright","arrowright","arrowleft","arrowleft","arrowleft","arrowleft","arrowright"],"response_times":[442,432,477,574,1370,1463,859,965,2896,1011],"outcomes":[39,28,48,34,41,60,39,44,34,41],"screen_resolution":1,"trial_type":"horizons-trial","trial_index":17,"time_elapsed":177609,"internal_node_id":"0.0-13.0"},{"horizon":10,"rewards_L":[62,53,78,77,57,81,61,65,65,75],"rewards_R":[38,38,45,48,35,36,46,58,46,35],"key_presses":["arrowleft","arrowleft","arrowright","arrowright","arrowleft","arrowleft","arrowleft","arrowright","arrowleft","arrowleft"],"response_times":[924,469,421,436,1598,1086,566,999,716,513],"outcomes":[62,53,45,48,57,81,61,58,65,75],"screen_resolution":1,"trial_type":"horizons-trial","trial_index":18,"time_elapsed":186027,"internal_node_id":"0.0-14.0"},{"horizon":5,"rewards_L":[63,64,84,70,59],"rewards_R":[43,55,37,51,43],"key_presses":["arrowright","arrowleft","arrowleft","arrowright","arrowleft"],"response_times":[450,307,460,2093,1074],"outcomes":[43,64,84,51,59],"screen_resolution":1,"trial_type":"horizons-trial","trial_index":19,"time_elapsed":191240,"internal_node_id":"0.0-15.0"},{"horizon":10,"rewards_L":[38,42,41,27,35,36,38,38,40,46],"rewards_R":[38,47,40,62,56,47,50,39,45,44],"key_presses":["arrowleft","arrowright","arrowleft","arrowleft","arrowright","arrowright","arrowright","arrowright","arrowleft","arrowright"],"response_times":[528,295,745,1056,1461,876,1428,512,1098,1122],"outcomes":[38,47,41,27,56,47,50,39,40,44],"screen_resolution":1,"trial_type":"horizons-trial","trial_index":20,"time_elapsed":200915,"internal_node_id":"0.0-16.0"},{"horizon":10,"rewards_L":[35,48,42,50,35,26,37,28,13,33],"rewards_R":[35,51,51,49,52,34,44,31,49,53],"key_presses":["arrowleft","arrowright","arrowright","arrowleft","arrowleft","arrowright","arrowright","arrowleft","arrowright","arrowright"],"response_times":[596,312,621,405,2215,434,1342,832,656,713],"outcomes":[35,51,51,50,35,34,44,28,49,53],"screen_resolution":1,"trial_type":"horizons-trial","trial_index":21,"time_elapsed":209551,"internal_node_id":"0.0-17.0"},{"horizon":10,"rewards_L":[53,37,41,45,28,35,16,38,46,25],"rewards_R":[50,63,47,62,59,55,62,54,62,56],"key_presses":["arrowright","arrowleft","arrowleft","arrowleft","arrowright","arrowright","arrowright","arrowright","arrowright","arrowright"],"response_times":[516,311,376,712,313,871,1574,648,503,500],"outcomes":[50,37,41,45,59,55,62,54,62,56],"screen_resolution":1,"trial_type":"horizons-trial","trial_index":22,"time_elapsed":216394,"internal_node_id":"0.0-18.0"},{"horizon":10,"rewards_L":[58,21,36,25,36,32,36,46,49,31],"rewards_R":[40,46,51,47,34,34,57,54,36,54],"key_presses":["arrowleft","arrowright","arrowleft","arrowright","arrowleft","arrowright","arrowleft","arrowleft","arrowleft","arrowleft"],"response_times":[461,322,370,446,13056,936,608,422,277,192],"outcomes":[58,46,36,47,36,34,36,46,49,31],"screen_resolution":1,"trial_type":"horizons-trial","trial_index":23,"time_elapsed":234045,"internal_node_id":"0.0-19.0"},{"horizon":10,"rewards_L":[56,53,60,65,55,67,59,74,41,49],"rewards_R":[67,63,72,51,54,75,67,57,63,60],"key_presses":["arrowright","arrowright","arrowright","arrowleft","arrowleft","arrowleft","arrowright","arrowright","arrowright","arrowright"],"response_times":[452,491,696,427,1339,1178,2672,693,298,189],"outcomes":[67,63,72,65,55,67,67,57,63,60],"screen_resolution":1,"trial_type":"horizons-trial","trial_index":24,"time_elapsed":243371,"internal_node_id":"0.0-20.0"},{"horizon":10,"rewards_L":[42,64,65,49,41,45,49,49,44,49],"rewards_R":[37,51,30,45,36,34,44,43,39,32],"key_presses":["arrowleft","arrowleft","arrowright","arrowright","arrowleft","arrowright","arrowleft","arrowright","arrowleft","arrowleft"],"response_times":[516,410,310,410,662,971,592,614,640,378],"outcomes":[42,64,30,45,41,34,49,43,44,49],"screen_resolution":1,"trial_type":"horizons-trial","trial_index":25,"time_elapsed":249497,"internal_node_id":"0.0-21.0"},{"horizon":10,"rewards_L":[63,73,62,54,65,62,70,60,66,75],"rewards_R":[33,37,25,18,27,42,28,20,41,40],"key_presses":["arrowleft","arrowleft","arrowleft","arrowright","arrowleft","arrowright","arrowleft","arrowleft","arrowleft","arrowleft"],"response_times":[517,363,359,424,497,1189,635,395,359,248],"outcomes":[63,73,62,18,65,42,70,60,66,75],"screen_resolution":1,"trial_type":"horizons-trial","trial_index":26,"time_elapsed":255579,"internal_node_id":"0.0-22.0"},{"horizon":10,"rewards_L":[46,40,36,42,35,30,39,48,53,58],"rewards_R":[38,49,41,44,46,46,51,47,28,22],"key_presses":["arrowright","arrowleft","arrowright","arrowleft","arrowleft","arrowright","arrowright","arrowleft","arrowright","arrowleft"],"response_times":[548,289,477,525,3006,1148,1068,881,442,718],"outcomes":[38,40,41,42,35,46,51,48,28,58],"screen_resolution":1,"trial_type":"horizons-trial","trial_index":27,"time_elapsed":265594,"internal_node_id":"0.0-23.0"},{"horizon":5,"rewards_L":[27,40,39,33,48],"rewards_R":[55,52,64,53,69],"key_presses":["arrowright","arrowright","arrowright","arrowleft","arrowright"],"response_times":[336,548,380,521,972],"outcomes":[55,52,64,33,69],"screen_resolution":1,"trial_type":"horizons-trial","trial_index":28,"time_elapsed":270619,"internal_node_id":"0.0-24.0"},{"horizon":10,"rewards_L":[55,64,52,56,56,68,47,60,61,67],"rewards_R":[74,66,74,76,67,73,73,77,73,72],"key_presses":["arrowright","arrowright","arrowleft","arrowright","arrowright","arrowright","arrowright","arrowright","arrowright","arrowright"],"response_times":[504,437,1112,841,848,451,406,332,594,338],"outcomes":[74,66,52,76,67,73,73,77,73,72],"screen_resolution":1,"trial_type":"horizons-trial","trial_index":29,"time_elapsed":277446,"internal_node_id":"0.0-25.0"},{"horizon":5,"rewards_L":[21,22,13,26,15],"rewards_R":[46,42,32,29,46],"key_presses":["arrowright","arrowright","arrowright","arrowleft","arrowleft"],"response_times":[497,611,333,429,1382],"outcomes":[46,42,32,26,15],"screen_resolution":1,"trial_type":"horizons-trial","trial_index":30,"time_elapsed":281629,"internal_node_id":"0.0-26.0"},{"horizon":10,"rewards_L":[51,57,43,50,39,53,51,56,36,46],"rewards_R":[43,39,36,37,32,34,53,37,42,58],"key_presses":["arrowleft","arrowleft","arrowright","arrowleft","arrowright","arrowleft","arrowleft","arrowleft","arrowleft","arrowleft"],"response_times":[621,373,420,455,384,688,1671,184,211,176],"outcomes":[51,57,36,50,32,53,51,56,36,46],"screen_resolution":1,"trial_type":"horizons-trial","trial_index":31,"time_elapsed":288397,"internal_node_id":"0.0-27.0"},{"horizon":5,"rewards_L":[50,46,44,44,25],"rewards_R":[50,53,56,58,72],"key_presses":["arrowright","arrowright","arrowleft","arrowleft","arrowright"],"response_times":[500,433,327,390,1070],"outcomes":[50,53,44,44,72],"screen_resolution":1,"trial_type":"horizons-trial","trial_index":32,"time_elapsed":292050,"internal_node_id":"0.0-28.0"},{"horizon":5,"rewards_L":[36,33,48,55,46],"rewards_R":[15,2,15,6,23],"key_presses":["arrowright","arrowleft","arrowleft","arrowright","arrowleft"],"response_times":[383,326,346,634,490],"outcomes":[15,33,48,6,46],"screen_resolution":1,"trial_type":"horizons-trial","trial_index":33,"time_elapsed":295099,"internal_node_id":"0.0-29.0"},{"horizon":10,"rewards_L":[11,24,31,25,13,19,22,43,7,26],"rewards_R":[41,40,59,33,40,38,59,34,32,52],"key_presses":["arrowleft","arrowright","arrowright","arrowleft","arrowleft","arrowright","arrowright","arrowright","arrowright","arrowright"],"response_times":[575,279,367,259,383,1673,418,627,180,170],"outcomes":[11,40,59,25,13,38,59,34,32,52],"screen_resolution":1,"trial_type":"horizons-trial","trial_index":34,"time_elapsed":300896,"internal_node_id":"0.0-30.0"},{"horizon":10,"rewards_L":[39,18,24,33,38,17,24,46,39,43],"rewards_R":[35,44,43,49,27,46,44,45,36,40],"key_presses":["arrowright","arrowright","arrowright","arrowleft","arrowleft","arrowleft","arrowright","arrowright","arrowright","arrowright"],"response_times":[456,384,402,399,1271,1611,538,205,169,239],"outcomes":[35,44,43,33,38,17,44,45,36,40],"screen_resolution":1,"trial_type":"horizons-trial","trial_index":35,"time_elapsed":307323,"internal_node_id":"0.0-31.0"},{"horizon":5,"rewards_L":[64,63,55,43,54],"rewards_R":[49,56,55,62,67],"key_presses":["arrowright","arrowright","arrowleft","arrowleft","arrowright"],"response_times":[382,345,355,487,4738],"outcomes":[49,56,55,43,67],"screen_resolution":1,"trial_type":"horizons-trial","trial_index":36,"time_elapsed":315108,"internal_node_id":"0.0-32.0"},{"horizon":10,"rewards_L":[30,36,39,39,36,43,50,36,34,33],"rewards_R":[46,36,48,31,29,39,27,43,29,32],"key_presses":["arrowleft","arrowright","arrowright","arrowleft","arrowright","arrowleft","arrowleft","arrowright","arrowleft","arrowleft"],"response_times":[547,292,319,312,1928,826,774,326,545,193],"outcomes":[30,36,48,39,29,43,50,43,34,33],"screen_resolution":1,"trial_type":"horizons-trial","trial_index":37,"time_elapsed":321698,"internal_node_id":"0.0-33.0"},{"horizon":5,"rewards_L":[43,42,38,31,39],"rewards_R":[12,28,20,18,9],"key_presses":["arrowleft","arrowright","arrowleft","arrowright","arrowleft"],"response_times":[688,264,459,361,1774],"outcomes":[43,28,38,18,39],"screen_resolution":1,"trial_type":"horizons-trial","trial_index":38,"time_elapsed":325875,"internal_node_id":"0.0-34.0"},{"horizon":5,"rewards_L":[37,37,48,44,61],"rewards_R":[31,35,28,34,36],"key_presses":["arrowright","arrowleft","arrowleft","arrowright","arrowleft"],"response_times":[385,287,488,351,2058],"outcomes":[31,37,48,34,61],"screen_resolution":1,"trial_type":"horizons-trial","trial_index":39,"time_elapsed":330158,"internal_node_id":"0.0-35.0"},{"horizon":10,"rewards_L":[45,55,47,43,38,36,28,38,44,34],"rewards_R":[66,64,60,38,74,76,60,66,48,57],"key_presses":["arrowright","arrowright","arrowright","arrowleft","arrowleft","arrowleft","arrowright","arrowright","arrowright","arrowright"],"response_times":[660,339,279,571,243,302,771,197,228,266],"outcomes":[66,64,60,43,38,36,60,66,48,57],"screen_resolution":1,"trial_type":"horizons-trial","trial_index":40,"time_elapsed":334748,"internal_node_id":"0.0-36.0"},{"horizon":10,"rewards_L":[27,39,43,32,20,43,32,44,35,32],"rewards_R":[10,9,9,12,0,4,1,2,17,9],"key_presses":["arrowright","arrowleft","arrowright","arrowleft","arrowright","arrowleft","arrowleft","arrowleft","arrowleft","arrowleft"],"response_times":[391,360,522,270,410,465,221,178,176,195],"outcomes":[10,39,9,32,0,43,32,44,35,32],"screen_resolution":1,"trial_type":"horizons-trial","trial_index":41,"time_elapsed":338684,"internal_node_id":"0.0-37.0"},{"horizon":10,"rewards_L":[40,34,45,43,49,53,38,50,32,42],"rewards_R":[28,36,33,42,24,36,43,9,23,30],"key_presses":["arrowright","arrowleft","arrowright","arrowleft","arrowright","arrowleft","arrowleft","arrowleft","arrowleft","arrowleft"],"response_times":[423,329,347,359,2236,439,1248,732,353,235],"outcomes":[28,34,33,43,24,53,38,50,32,42],"screen_resolution":1,"trial_type":"horizons-trial","trial_index":42,"time_elapsed":345890,"internal_node_id":"0.0-38.0"},{"horizon":10,"rewards_L":[39,46,41,36,35,37,41,30,49,39],"rewards_R":[51,44,40,32,37,37,44,53,34,51],"key_presses":["arrowright","arrowleft","arrowleft","arrowleft","arrowright","arrowright","arrowleft","arrowright","arrowright","arrowleft"],"response_times":[423,274,314,742,886,1147,478,576,2019,594],"outcomes":[51,46,41,36,37,37,41,53,34,39],"screen_resolution":1,"trial_type":"horizons-trial","trial_index":43,"time_elapsed":354114,"internal_node_id":"0.0-39.0"},{"horizon":10,"rewards_L":[37,33,44,41,58,49,39,45,50,34],"rewards_R":[25,34,37,40,38,40,36,49,34,36],"key_presses":["arrowleft","arrowright","arrowright","arrowright","arrowleft","arrowleft","arrowright","arrowleft","arrowleft","arrowleft"],"response_times":[593,289,408,650,854,528,319,666,207,185],"outcomes":[37,34,37,40,58,49,36,45,50,34],"screen_resolution":1,"trial_type":"horizons-trial","trial_index":44,"time_elapsed":359489,"internal_node_id":"0.0-40.0"},{"horizon":5,"rewards_L":[79,80,86,90,87],"rewards_R":[52,75,55,61,59],"key_presses":["arrowleft","arrowright","arrowleft","arrowright","arrowleft"],"response_times":[476,243,657,2374,1908],"outcomes":[79,75,86,61,87],"screen_resolution":1,"trial_type":"horizons-trial","trial_index":45,"time_elapsed":365676,"internal_node_id":"0.0-41.0"},{"horizon":10,"rewards_L":[46,45,40,44,44,33,38,34,51,34],"rewards_R":[48,56,52,58,61,49,59,59,42,49],"key_presses":["arrowright","arrowleft","arrowright","arrowleft","arrowright","arrowright","arrowright","arrowright","arrowright","arrowright"],"response_times":[458,298,365,320,395,757,328,202,198,176],"outcomes":[48,45,52,44,61,49,59,59,42,49],"screen_resolution":1,"trial_type":"horizons-trial","trial_index":46,"time_elapsed":369832,"internal_node_id":"0.0-42.0"},{"horizon":10,"rewards_L":[70,85,84,83,69,79,91,77,83,93],"rewards_R":[54,73,61,58,63,60,66,57,56,66],"key_presses":["arrowleft","arrowright","arrowright","arrowleft","arrowright","arrowleft","arrowleft","arrowleft","arrowleft","arrowleft"],"response_times":[350,246,502,356,694,450,670,362,214,176],"outcomes":[70,73,61,83,63,79,91,77,83,93],"screen_resolution":1,"trial_type":"horizons-trial","trial_index":47,"time_elapsed":374447,"internal_node_id":"0.0-43.0"},{"horizon":5,"rewards_L":[57,60,61,80,48],"rewards_R":[57,65,57,75,60],"key_presses":["arrowleft","arrowright","arrowright","arrowleft","arrowleft"],"response_times":[493,219,390,279,697],"outcomes":[57,65,57,80,48],"screen_resolution":1,"trial_type":"horizons-trial","trial_index":48,"time_elapsed":377313,"internal_node_id":"0.0-44.0"},{"horizon":5,"rewards_L":[40,34,32,41,45],"rewards_R":[35,40,40,43,36],"key_presses":["arrowleft","arrowleft","arrowright","arrowleft","arrowright"],"response_times":[675,456,337,480,634],"outcomes":[40,34,40,41,36],"screen_resolution":1,"trial_type":"horizons-trial","trial_index":49,"time_elapsed":380430,"internal_node_id":"0.0-45.0"},{"horizon":5,"rewards_L":[56,55,52,35,47],"rewards_R":[27,36,24,36,48],"key_presses":["arrowright","arrowleft","arrowright","arrowleft","arrowleft"],"response_times":[374,298,420,351,1085],"outcomes":[27,55,24,35,47],"screen_resolution":1,"trial_type":"horizons-trial","trial_index":50,"time_elapsed":383740,"internal_node_id":"0.0-46.0"},{"horizon":10,"rewards_L":[66,54,63,64,61,51,65,50,63,63],"rewards_R":[79,69,74,86,71,86,67,72,77,73],"key_presses":["arrowright","arrowright","arrowleft","arrowright","arrowleft","arrowright","arrowright","arrowright","arrowright","arrowright"],"response_times":[451,430,368,535,347,718,199,180,196,166],"outcomes":[79,69,63,86,61,86,67,72,77,73],"screen_resolution":1,"trial_type":"horizons-trial","trial_index":51,"time_elapsed":388136,"internal_node_id":"0.0-47.0"},{"horizon":5,"rewards_L":[29,35,28,52,30],"rewards_R":[70,64,62,52,73],"key_presses":["arrowright","arrowleft","arrowleft","arrowleft","arrowright"],"response_times":[357,377,730,949,399],"outcomes":[70,35,28,52,73],"screen_resolution":1,"trial_type":"horizons-trial","trial_index":52,"time_elapsed":391756,"internal_node_id":"0.0-48.0"},{"horizon":10,"rewards_L":[34,40,33,19,24,30,27,28,32,35],"rewards_R":[43,44,36,38,52,53,45,39,31,26],"key_presses":["arrowright","arrowleft","arrowright","arrowleft","arrowright","arrowright","arrowright","arrowright","arrowleft","arrowright"],"response_times":[418,323,365,392,754,908,218,207,489,366],"outcomes":[43,40,36,19,52,53,45,39,32,26],"screen_resolution":1,"trial_type":"horizons-trial","trial_index":53,"time_elapsed":396864,"internal_node_id":"0.0-49.0"},{"horizon":10,"rewards_L":[42,34,40,44,55,49,54,31,56,55],"rewards_R":[36,52,42,43,42,51,32,36,41,30],"key_presses":["arrowleft","arrowright","arrowleft","arrowright","arrowleft","arrowright","arrowleft","arrowright","arrowleft","arrowleft"],"response_times":[500,251,247,278,1450,593,767,465,716,253],"outcomes":[42,52,40,43,55,51,54,36,56,55],"screen_resolution":1,"trial_type":"horizons-trial","trial_index":54,"time_elapsed":403126,"internal_node_id":"0.0-50.0"},{"horizon":10,"rewards_L":[35,50,48,46,48,53,54,33,50,45],"rewards_R":[44,44,47,49,55,40,34,32,29,42],"key_presses":["arrowright","arrowright","arrowleft","arrowleft","arrowleft","arrowleft","arrowleft","arrowleft","arrowleft","arrowleft"],"response_times":[462,370,353,326,510,619,298,253,194,195],"outcomes":[44,44,48,46,48,53,54,33,50,45],"screen_resolution":1,"trial_type":"horizons-trial","trial_index":55,"time_elapsed":407481,"internal_node_id":"0.0-51.0"},{"horizon":5,"rewards_L":[82,90,83,76,91],"rewards_R":[68,56,52,68,65],"key_presses":["arrowright","arrowleft","arrowleft","arrowright","arrowleft"],"response_times":[403,272,438,363,386],"outcomes":[68,90,83,68,91],"screen_resolution":1,"trial_type":"horizons-trial","trial_index":56,"time_elapsed":409971,"internal_node_id":"0.0-52.0"},{"horizon":5,"rewards_L":[71,68,63,45,48],"rewards_R":[59,45,72,69,55],"key_presses":["arrowright","arrowright","arrowleft","arrowleft","arrowleft"],"response_times":[516,455,358,386,1419],"outcomes":[59,45,63,45,48],"screen_resolution":1,"trial_type":"horizons-trial","trial_index":57,"time_elapsed":413860,"internal_node_id":"0.0-53.0"},{"horizon":5,"rewards_L":[49,46,32,36,29],"rewards_R":[75,71,59,84,60],"key_presses":["arrowleft","arrowright","arrowleft","arrowright","arrowright"],"response_times":[497,305,409,381,522],"outcomes":[49,71,32,84,60],"screen_resolution":1,"trial_type":"horizons-trial","trial_index":58,"time_elapsed":416973,"internal_node_id":"0.0-54.0"},{"horizon":5,"rewards_L":[59,67,67,60,50],"rewards_R":[36,61,39,30,45],"key_presses":["arrowleft","arrowright","arrowright","arrowright","arrowleft"],"response_times":[492,324,442,362,1810],"outcomes":[59,61,39,30,50],"screen_resolution":1,"trial_type":"horizons-trial","trial_index":59,"time_elapsed":421073,"internal_node_id":"0.0-55.0"},{"horizon":10,"rewards_L":[75,67,63,55,51,62,41,55,52,57],"rewards_R":[37,38,48,26,37,12,54,46,31,26],"key_presses":["arrowleft","arrowright","arrowleft","arrowright","arrowleft","arrowleft","arrowleft","arrowleft","arrowleft","arrowleft"],"response_times":[473,267,376,343,383,250,197,187,209,223],"outcomes":[75,38,63,26,51,62,41,55,52,57],"screen_resolution":1,"trial_type":"horizons-trial","trial_index":60,"time_elapsed":424509,"internal_node_id":"0.0-56.0"},{"horizon":10,"rewards_L":[22,7,18,20,20,23,17,18,16,14],"rewards_R":[29,47,37,34,57,37,20,28,23,48],"key_presses":["arrowright","arrowleft","arrowleft","arrowleft","arrowright","arrowright","arrowright","arrowright","arrowright","arrowright"],"response_times":[509,266,633,448,657,184,211,196,208,176],"outcomes":[29,7,18,20,57,37,20,28,23,48],"screen_resolution":1,"trial_type":"horizons-trial","trial_index":61,"time_elapsed":428504,"internal_node_id":"0.0-57.0"},{"horizon":5,"rewards_L":[63,55,55,51,54],"rewards_R":[51,45,39,43,54],"key_presses":["arrowleft","arrowright","arrowright","arrowright","arrowleft"],"response_times":[474,275,370,563,3970],"outcomes":[63,45,39,43,54],"screen_resolution":1,"trial_type":"horizons-trial","trial_index":62,"time_elapsed":434776,"internal_node_id":"0.0-58.0"},{"horizon":10,"rewards_L":[29,30,22,31,32,39,29,32,33,29],"rewards_R":[49,38,25,41,36,38,41,46,36,43],"key_presses":["arrowleft","arrowright","arrowleft","arrowright","arrowright","arrowright","arrowright","arrowright","arrowright","arrowright"],"response_times":[455,262,466,335,744,176,178,206,179,211],"outcomes":[29,38,22,41,36,38,41,46,36,43],"screen_resolution":1,"trial_type":"horizons-trial","trial_index":63,"time_elapsed":438775,"internal_node_id":"0.0-59.0"},{"horizon":10,"rewards_L":[63,73,71,75,56,58,69,74,61,53],"rewards_R":[52,56,57,51,60,66,59,54,65,61],"key_presses":["arrowright","arrowleft","arrowright","arrowright","arrowleft","arrowleft","arrowleft","arrowleft","arrowleft","arrowleft"],"response_times":[350,365,316,528,1232,1963,473,513,202,199],"outcomes":[52,73,57,51,56,58,69,74,61,53],"screen_resolution":1,"trial_type":"horizons-trial","trial_index":64,"time_elapsed":445843,"internal_node_id":"0.0-60.0"},{"horizon":10,"rewards_L":[49,29,40,24,48,49,43,48,30,45],"rewards_R":[24,21,49,29,38,32,38,27,23,15],"key_presses":["arrowleft","arrowleft","arrowright","arrowright","arrowright","arrowleft","arrowleft","arrowleft","arrowleft","arrowleft"],"response_times":[497,382,337,369,515,518,936,546,646,216],"outcomes":[49,29,49,29,38,49,43,48,30,45],"screen_resolution":1,"trial_type":"horizons-trial","trial_index":65,"time_elapsed":451698,"internal_node_id":"0.0-61.0"},{"horizon":5,"rewards_L":[54,37,49,54,48],"rewards_R":[65,72,50,50,60],"key_presses":["arrowright","arrowright","arrowright","arrowleft","arrowright"],"response_times":[415,407,438,391,672],"outcomes":[65,72,50,54,60],"screen_resolution":1,"trial_type":"horizons-trial","trial_index":66,"time_elapsed":454743,"internal_node_id":"0.0-62.0"},{"horizon":10,"rewards_L":[36,32,37,28,20,30,10,30,31,10],"rewards_R":[50,45,47,24,45,47,37,49,34,37],"key_presses":["arrowright","arrowleft","arrowleft","arrowleft","arrowright","arrowleft","arrowright","arrowright","arrowright","arrowright"],"response_times":[432,326,465,364,446,595,786,848,672,1831],"outcomes":[50,32,37,28,45,30,37,49,34,37],"screen_resolution":1,"trial_type":"horizons-trial","trial_index":67,"time_elapsed":462165,"internal_node_id":"0.0-63.0"},{"horizon":10,"rewards_L":[35,23,28,25,21,35,20,12,24,31],"rewards_R":[37,30,17,53,45,38,47,39,36,19],"key_presses":["arrowleft","arrowleft","arrowright","arrowright","arrowleft","arrowright","arrowleft","arrowright","arrowright","arrowright"],"response_times":[1296,515,307,391,453,556,1285,381,523,176],"outcomes":[35,23,17,53,21,38,20,39,36,19],"screen_resolution":1,"trial_type":"horizons-trial","trial_index":68,"time_elapsed":468771,"internal_node_id":"0.0-64.0"},{"horizon":5,"rewards_L":[23,20,23,21,34],"rewards_R":[32,47,47,45,43],"key_presses":["arrowright","arrowleft","arrowright","arrowleft","arrowright"],"response_times":[339,277,345,475,405],"outcomes":[32,20,47,21,43],"screen_resolution":1,"trial_type":"horizons-trial","trial_index":69,"time_elapsed":471300,"internal_node_id":"0.0-65.0"},{"horizon":5,"rewards_L":[57,67,54,69,57],"rewards_R":[63,60,52,50,60],"key_presses":["arrowleft","arrowleft","arrowright","arrowleft","arrowleft"],"response_times":[462,334,330,478,444],"outcomes":[57,67,52,69,57],"screen_resolution":1,"trial_type":"horizons-trial","trial_index":70,"time_elapsed":474065,"internal_node_id":"0.0-66.0"},{"horizon":5,"rewards_L":[50,41,41,59,57],"rewards_R":[50,50,29,46,37],"key_presses":["arrowleft","arrowright","arrowleft","arrowright","arrowright"],"response_times":[563,282,404,403,2087],"outcomes":[50,50,41,46,37],"screen_resolution":1,"trial_type":"horizons-trial","trial_index":71,"time_elapsed":478544,"internal_node_id":"0.0-67.0"},{"horizon":10,"rewards_L":[59,59,56,61,59,59,65,48,48,42],"rewards_R":[41,41,51,48,45,49,31,41,41,46],"key_presses":["arrowleft","arrowleft","arrowright","arrowleft","arrowleft","arrowright","arrowleft","arrowleft","arrowleft","arrowleft"],"response_times":[420,480,507,504,1441,524,536,297,207,203],"outcomes":[59,59,51,61,59,49,65,48,48,42],"screen_resolution":1,"trial_type":"horizons-trial","trial_index":72,"time_elapsed":484815,"internal_node_id":"0.0-68.0"},{"horizon":10,"rewards_L":[42,45,28,19,20,33,39,16,42,16],"rewards_R":[41,40,43,39,37,51,36,36,39,36],"key_presses":["arrowright","arrowright","arrowright","arrowleft","arrowleft","arrowright","arrowright","arrowright","arrowright","arrowright"],"response_times":[419,493,712,424,303,953,311,224,186,214],"outcomes":[41,40,43,19,20,51,36,36,39,36],"screen_resolution":1,"trial_type":"horizons-trial","trial_index":73,"time_elapsed":491686,"internal_node_id":"0.0-69.0"},{"horizon":10,"rewards_L":[67,65,57,73,60,57,62,58,48,63],"rewards_R":[61,51,49,48,47,47,54,58,53,49],"key_presses":["arrowleft","arrowright","arrowright","arrowright","arrowleft","arrowleft","arrowright","arrowleft","arrowleft","arrowleft"],"response_times":[1241,433,466,382,1424,576,517,363,218,174],"outcomes":[67,51,49,48,60,57,54,58,48,63],"screen_resolution":1,"trial_type":"horizons-trial","trial_index":74,"time_elapsed":498015,"internal_node_id":"0.0-70.0"},{"horizon":10,"rewards_L":[65,70,66,58,74,67,71,57,55,60],"rewards_R":[58,61,51,63,60,50,38,65,68,65],"key_presses":["arrowleft","arrowleft","arrowleft","arrowright","arrowright","arrowleft","arrowright","arrowleft","arrowleft","arrowleft"],"response_times":[484,384,432,427,432,528,906,751,187,190],"outcomes":[65,70,66,63,60,67,38,57,55,60],"screen_resolution":1,"trial_type":"horizons-trial","trial_index":75,"time_elapsed":503247,"internal_node_id":"0.0-71.0"},{"horizon":10,"rewards_L":[68,57,70,69,43,46,62,67,70,50],"rewards_R":[41,55,66,52,59,55,52,54,56,47],"key_presses":["arrowleft","arrowright","arrowleft","arrowright","arrowleft","arrowleft","arrowleft","arrowleft","arrowleft","arrowleft"],"response_times":[455,290,261,320,1589,189,208,182,196,204],"outcomes":[68,55,70,52,43,46,62,67,70,50],"screen_resolution":1,"trial_type":"horizons-trial","trial_index":76,"time_elapsed":507977,"internal_node_id":"0.0-72.0"},{"horizon":10,"rewards_L":[45,49,49,38,41,51,40,41,54,51],"rewards_R":[66,56,53,62,64,47,62,58,70,59],"key_presses":["arrowright","arrowleft","arrowleft","arrowleft","arrowright","arrowright","arrowleft","arrowright","arrowright","arrowright"],"response_times":[427,269,575,416,841,442,999,508,191,179],"outcomes":[66,49,49,38,64,47,40,58,70,59],"screen_resolution":1,"trial_type":"horizons-trial","trial_index":77,"time_elapsed":513584,"internal_node_id":"0.0-73.0"},{"horizon":5,"rewards_L":[21,32,54,25,32],"rewards_R":[59,60,81,59,60],"key_presses":["arrowright","arrowright","arrowright","arrowleft","arrowright"],"response_times":[352,289,284,485,560],"outcomes":[59,60,81,25,60],"screen_resolution":1,"trial_type":"horizons-trial","trial_index":78,"time_elapsed":516320,"internal_node_id":"0.0-74.0"},{"horizon":5,"rewards_L":[23,24,38,20,26],"rewards_R":[67,43,61,52,50],"key_presses":["arrowleft","arrowright","arrowleft","arrowright","arrowright"],"response_times":[431,432,376,365,1259],"outcomes":[23,43,38,52,50],"screen_resolution":1,"trial_type":"horizons-trial","trial_index":79,"time_elapsed":520156,"internal_node_id":"0.0-75.0"},{"horizon":5,"rewards_L":[51,56,61,63,62],"rewards_R":[41,48,56,42,44],"key_presses":["arrowleft","arrowright","arrowright","arrowleft","arrowleft"],"response_times":[443,284,395,392,1368],"outcomes":[51,48,56,63,62],"screen_resolution":1,"trial_type":"horizons-trial","trial_index":80,"time_elapsed":523824,"internal_node_id":"0.0-76.0"},{"horizon":5,"rewards_L":[52,52,65,66,51],"rewards_R":[84,70,60,74,82],"key_presses":["arrowleft","arrowright","arrowleft","arrowright","arrowright"],"response_times":[587,276,290,340,859],"outcomes":[52,70,65,74,82],"screen_resolution":1,"trial_type":"horizons-trial","trial_index":81,"time_elapsed":526816,"internal_node_id":"0.0-77.0"},{"horizon":5,"rewards_L":[37,30,36,47,43],"rewards_R":[37,38,35,34,25],"key_presses":["arrowleft","arrowright","arrowright","arrowright","arrowleft"],"response_times":[415,209,402,626,2142],"outcomes":[37,38,35,34,43],"screen_resolution":1,"trial_type":"horizons-trial","trial_index":82,"time_elapsed":531267,"internal_node_id":"0.0-78.0"},{"horizon":10,"rewards_L":[46,47,42,50,47,39,37,48,39,45],"rewards_R":[40,57,34,39,32,28,36,28,26,33],"key_presses":["arrowleft","arrowleft","arrowleft","arrowright","arrowright","arrowright","arrowleft","arrowright","arrowleft","arrowleft"],"response_times":[457,310,339,324,266,966,742,682,421,539],"outcomes":[46,47,42,39,32,28,37,28,39,45],"screen_resolution":1,"trial_type":"horizons-trial","trial_index":83,"time_elapsed":537124,"internal_node_id":"0.0-79.0"},{"horizon":5,"rewards_L":[58,39,47,42,43],"rewards_R":[53,42,50,41,60],"key_presses":["arrowright","arrowleft","arrowright","arrowright","arrowright"],"response_times":[383,275,394,1456,866],"outcomes":[53,39,50,41,60],"screen_resolution":1,"trial_type":"horizons-trial","trial_index":84,"time_elapsed":541163,"internal_node_id":"0.0-80.0"},{"horizon":5,"rewards_L":[33,59,47,30,31],"rewards_R":[25,38,55,18,43],"key_presses":["arrowleft","arrowleft","arrowright","arrowright","arrowleft"],"response_times":[668,332,334,367,1664],"outcomes":[33,59,55,18,31],"screen_resolution":1,"trial_type":"horizons-trial","trial_index":85,"time_elapsed":545126,"internal_node_id":"0.0-81.0"},{"horizon":10,"rewards_L":[27,19,21,32,37,18,19,45,36,34],"rewards_R":[58,55,70,80,59,64,45,60,77,66],"key_presses":["arrowright","arrowleft","arrowleft","arrowright","arrowright","arrowright","arrowright","arrowright","arrowright","arrowright"],"response_times":[444,285,328,274,967,347,277,179,193,199],"outcomes":[58,19,21,80,59,64,45,60,77,66],"screen_resolution":1,"trial_type":"horizons-trial","trial_index":86,"time_elapsed":549261,"internal_node_id":"0.0-82.0"},{"horizon":5,"rewards_L":[56,49,67,80,57],"rewards_R":[57,53,65,61,48],"key_presses":["arrowleft","arrowleft","arrowleft","arrowright","arrowright"],"response_times":[715,533,340,423,953],"outcomes":[56,49,67,61,48],"screen_resolution":1,"trial_type":"horizons-trial","trial_index":87,"time_elapsed":553022,"internal_node_id":"0.0-83.0"},{"horizon":5,"rewards_L":[44,31,36,46,50],"rewards_R":[39,25,21,34,40],"key_presses":["arrowright","arrowright","arrowleft","arrowleft","arrowright"],"response_times":[333,291,535,302,1422],"outcomes":[39,25,36,46,40],"screen_resolution":1,"trial_type":"horizons-trial","trial_index":88,"time_elapsed":556529,"internal_node_id":"0.0-84.0"},{"horizon":5,"rewards_L":[52,34,25,41,41],"rewards_R":[17,19,22,24,27],"key_presses":["arrowleft","arrowleft","arrowleft","arrowright","arrowright"],"response_times":[432,275,580,308,436],"outcomes":[52,34,25,24,27],"screen_resolution":1,"trial_type":"horizons-trial","trial_index":89,"time_elapsed":559131,"internal_node_id":"0.0-85.0"},{"horizon":5,"rewards_L":[42,48,33,43,48],"rewards_R":[31,18,30,29,26],"key_presses":["arrowleft","arrowright","arrowright","arrowright","arrowleft"],"response_times":[474,381,440,458,1325],"outcomes":[42,18,30,29,48],"screen_resolution":1,"trial_type":"horizons-trial","trial_index":90,"time_elapsed":563272,"internal_node_id":"0.0-86.0"},{"horizon":5,"rewards_L":[54,40,49,44,36],"rewards_R":[33,45,36,45,51],"key_presses":["arrowright","arrowleft","arrowright","arrowleft","arrowleft"],"response_times":[394,281,437,432,854],"outcomes":[33,40,36,44,36],"screen_resolution":1,"trial_type":"horizons-trial","trial_index":91,"time_elapsed":566457,"internal_node_id":"0.0-87.0"},{"horizon":10,"rewards_L":[36,39,35,40,47,30,39,30,41,40],"rewards_R":[86,68,65,80,66,81,54,67,85,82],"key_presses":["arrowright","arrowleft","arrowleft","arrowright","arrowright","arrowright","arrowright","arrowright","arrowright","arrowright"],"response_times":[375,265,309,338,384,229,183,171,185,161],"outcomes":[86,39,35,80,66,81,54,67,85,82],"screen_resolution":1,"trial_type":"horizons-trial","trial_index":92,"time_elapsed":569869,"internal_node_id":"0.0-88.0"},{"horizon":5,"rewards_L":[75,54,64,62,62],"rewards_R":[64,74,80,70,66],"key_presses":["arrowleft","arrowleft","arrowright","arrowright","arrowright"],"response_times":[335,292,355,558,693],"outcomes":[75,54,80,70,66],"screen_resolution":1,"trial_type":"horizons-trial","trial_index":93,"time_elapsed":572617,"internal_node_id":"0.0-89.0"},{"horizon":10,"rewards_L":[31,36,29,38,38,39,31,39,46,40],"rewards_R":[3,28,0,13,19,15,21,3,18,0],"key_presses":["arrowleft","arrowright","arrowright","arrowright","arrowleft","arrowleft","arrowleft","arrowleft","arrowleft","arrowleft"],"response_times":[434,277,346,574,957,327,1349,331,221,217],"outcomes":[31,28,0,13,38,39,31,39,46,40],"screen_resolution":1,"trial_type":"horizons-trial","trial_index":94,"time_elapsed":578181,"internal_node_id":"0.0-90.0"},{"horizon":5,"rewards_L":[54,64,62,65,70],"rewards_R":[35,51,50,47,53],"key_presses":["arrowleft","arrowleft","arrowleft","arrowright","arrowright"],"response_times":[654,306,421,395,1366],"outcomes":[54,64,62,47,53],"screen_resolution":1,"trial_type":"horizons-trial","trial_index":95,"time_elapsed":582282,"internal_node_id":"0.0-91.0"},{"horizon":5,"rewards_L":[64,60,59,56,44],"rewards_R":[76,82,71,88,70],"key_presses":["arrowright","arrowleft","arrowleft","arrowright","arrowright"],"response_times":[368,293,649,366,484],"outcomes":[76,60,59,88,70],"screen_resolution":1,"trial_type":"horizons-trial","trial_index":96,"time_elapsed":585234,"internal_node_id":"0.0-92.0"},{"horizon":10,"rewards_L":[49,42,43,36,41,41,30,32,19,32],"rewards_R":[26,23,14,23,11,19,26,29,29,6],"key_presses":["arrowleft","arrowleft","arrowleft","arrowright","arrowright","arrowleft","arrowleft","arrowleft","arrowleft","arrowleft"],"response_times":[379,285,318,347,820,506,212,178,198,212],"outcomes":[49,42,43,23,11,41,30,32,19,32],"screen_resolution":1,"trial_type":"horizons-trial","trial_index":97,"time_elapsed":589452,"internal_node_id":"0.0-93.0"},{"horizon":5,"rewards_L":[45,52,50,56,70],"rewards_R":[48,31,29,40,24],"key_presses":["arrowleft","arrowleft","arrowright","arrowright","arrowleft"],"response_times":[338,290,353,503,230],"outcomes":[45,52,29,40,70],"screen_resolution":1,"trial_type":"horizons-trial","trial_index":98,"time_elapsed":591953,"internal_node_id":"0.0-94.0"},{"horizon":10,"rewards_L":[43,55,68,59,37,56,54,55,54,51],"rewards_R":[57,60,51,61,63,51,53,51,51,62],"key_presses":["arrowleft","arrowright","arrowright","arrowleft","arrowright","arrowleft","arrowright","arrowleft","arrowright","arrowleft"],"response_times":[360,248,325,290,409,808,637,285,501,817],"outcomes":[43,60,51,59,63,56,53,55,51,51],"screen_resolution":1,"trial_type":"horizons-trial","trial_index":99,"time_elapsed":597260,"internal_node_id":"0.0-95.0"},{"horizon":5,"rewards_L":[67,69,80,66,79],"rewards_R":[58,55,56,57,59],"key_presses":["arrowright","arrowleft","arrowright","arrowleft","arrowleft"],"response_times":[389,272,450,302,545],"outcomes":[58,69,56,66,79],"screen_resolution":1,"trial_type":"horizons-trial","trial_index":100,"time_elapsed":599960,"internal_node_id":"0.0-96.0"},{"horizon":5,"rewards_L":[60,58,82,73,67],"rewards_R":[26,42,39,32,24],"key_presses":["arrowleft","arrowright","arrowright","arrowright","arrowleft"],"response_times":[394,257,385,572,468],"outcomes":[60,42,39,32,67],"screen_resolution":1,"trial_type":"horizons-trial","trial_index":101,"time_elapsed":602736,"internal_node_id":"0.0-97.0"},{"horizon":10,"rewards_L":[34,22,35,41,31,28,24,39,31,44],"rewards_R":[37,72,68,55,59,65,68,62,69,56],"key_presses":["arrowright","arrowright","arrowright","arrowleft","arrowleft","arrowright","arrowright","arrowright","arrowright","arrowright"],"response_times":[353,328,302,442,291,677,226,184,190,192],"outcomes":[37,72,68,41,31,65,68,62,69,56],"screen_resolution":1,"trial_type":"horizons-trial","trial_index":102,"time_elapsed":606657,"internal_node_id":"0.0-98.0"},{"horizon":10,"rewards_L":[48,52,58,55,56,54,77,57,54,60],"rewards_R":[82,81,68,81,85,75,65,66,78,90],"key_presses":["arrowright","arrowleft","arrowleft","arrowright","arrowright","arrowright","arrowright","arrowright","arrowright","arrowright"],"response_times":[325,495,359,286,400,592,176,168,176,176],"outcomes":[82,52,58,81,85,75,65,66,78,90],"screen_resolution":1,"trial_type":"horizons-trial","trial_index":103,"time_elapsed":610514,"internal_node_id":"0.0-99.0"},{"horizon":5,"rewards_L":[64,52,64,69,58],"rewards_R":[42,42,24,55,44],"key_presses":["arrowright","arrowright","arrowleft","arrowleft","arrowleft"],"response_times":[353,365,304,402,489],"outcomes":[42,42,64,69,58],"screen_resolution":1,"trial_type":"horizons-trial","trial_index":104,"time_elapsed":613132,"internal_node_id":"0.0-100.0"},{"horizon":10,"rewards_L":[61,53,48,62,47,53,56,52,57,52],"rewards_R":[33,39,34,30,35,38,40,40,48,38],"key_presses":["arrowright","arrowleft","arrowright","arrowright","arrowleft","arrowleft","arrowleft","arrowleft","arrowleft","arrowleft"],"response_times":[270,353,231,626,701,423,206,214,205,220],"outcomes":[33,53,34,30,47,53,56,52,57,52],"screen_resolution":1,"trial_type":"horizons-trial","trial_index":105,"time_elapsed":617358,"internal_node_id":"0.0-101.0"},{"horizon":10,"rewards_L":[66,65,57,64,56,61,63,52,67,76],"rewards_R":[74,70,82,78,68,77,68,64,78,89],"key_presses":["arrowleft","arrowright","arrowright","arrowleft","arrowright","arrowright","arrowright","arrowright","arrowright","arrowright"],"response_times":[441,274,392,344,377,190,181,189,179,337],"outcomes":[66,70,82,64,68,77,68,64,78,89],"screen_resolution":1,"trial_type":"horizons-trial","trial_index":106,"time_elapsed":620993,"internal_node_id":"0.0-102.0"},{"horizon":10,"rewards_L":[58,59,57,50,54,54,61,62,46,74],"rewards_R":[66,80,86,97,84,70,80,71,79,89],"key_presses":["arrowleft","arrowright","arrowleft","arrowleft","arrowright","arrowright","arrowright","arrowright","arrowright","arrowright"],"response_times":[383,306,279,398,212,481,182,175,164,189],"outcomes":[58,80,57,50,84,70,80,71,79,89],"screen_resolution":1,"trial_type":"horizons-trial","trial_index":107,"time_elapsed":624385,"internal_node_id":"0.0-103.0"},{"horizon":5,"rewards_L":[100,81,79,84,91],"rewards_R":[64,53,72,52,51],"key_presses":["arrowleft","arrowright","arrowright","arrowleft","arrowleft"],"response_times":[292,232,339,279,963],"outcomes":[100,53,72,84,91],"screen_resolution":1,"trial_type":"horizons-trial","trial_index":108,"time_elapsed":627186,"internal_node_id":"0.0-104.0"},{"horizon":10,"rewards_L":[100,100,84,91,98,81,87,80,90,97],"rewards_R":[68,61,74,60,54,68,64,70,67,65],"key_presses":["arrowright","arrowleft","arrowright","arrowright","arrowleft","arrowleft","arrowleft","arrowleft","arrowleft","arrowleft"],"response_times":[418,287,592,357,402,720,552,409,897,382],"outcomes":[68,100,74,60,98,81,87,80,90,97],"screen_resolution":1,"trial_type":"horizons-trial","trial_index":109,"time_elapsed":632897,"internal_node_id":"0.0-105.0"},{"horizon":10,"rewards_L":[39,46,41,35,45,35,33,42,47,42],"rewards_R":[29,27,18,30,34,34,26,22,40,18],"key_presses":["arrowright","arrowright","arrowleft","arrowleft","arrowleft","arrowright","arrowleft","arrowleft","arrowleft","arrowleft"],"response_times":[304,357,317,335,1697,359,440,346,223,219],"outcomes":[29,27,41,35,45,34,33,42,47,42],"screen_resolution":1,"trial_type":"horizons-trial","trial_index":110,"time_elapsed":638210,"internal_node_id":"0.0-106.0"},{"horizon":5,"rewards_L":[31,50,32,40,40],"rewards_R":[68,64,55,70,63],"key_presses":["arrowright","arrowright","arrowleft","arrowright","arrowright"],"response_times":[311,507,327,461,273],"outcomes":[68,64,32,70,63],"screen_resolution":1,"trial_type":"horizons-trial","trial_index":111,"time_elapsed":640966,"internal_node_id":"0.0-107.0"},{"horizon":5,"rewards_L":[79,87,63,74,83],"rewards_R":[63,70,52,61,59],"key_presses":["arrowleft","arrowleft","arrowright","arrowleft","arrowright"],"response_times":[354,289,314,385,377],"outcomes":[79,87,52,74,59],"screen_resolution":1,"trial_type":"horizons-trial","trial_index":112,"time_elapsed":643253,"internal_node_id":"0.0-108.0"},{"horizon":10,"rewards_L":[62,62,62,71,62,57,55,55,76,66],"rewards_R":[52,62,59,56,38,59,63,48,49,55],"key_presses":["arrowright","arrowleft","arrowright","arrowleft","arrowright","arrowleft","arrowleft","arrowleft","arrowleft","arrowleft"],"response_times":[360,268,446,325,655,784,353,224,230,225],"outcomes":[52,62,59,71,38,57,55,55,76,66],"screen_resolution":1,"trial_type":"horizons-trial","trial_index":113,"time_elapsed":647865,"internal_node_id":"0.0-109.0"},{"horizon":5,"rewards_L":[21,33,44,28,39],"rewards_R":[46,35,36,34,50],"key_presses":["arrowleft","arrowright","arrowleft","arrowright","arrowleft"],"response_times":[353,283,343,375,566],"outcomes":[21,35,44,34,39],"screen_resolution":1,"trial_type":"horizons-trial","trial_index":114,"time_elapsed":650402,"internal_node_id":"0.0-110.0"},{"horizon":10,"rewards_L":[37,30,46,36,41,34,39,35,50,40],"rewards_R":[58,59,50,49,70,45,60,51,59,65],"key_presses":["arrowleft","arrowright","arrowleft","arrowleft","arrowright","arrowright","arrowright","arrowright","arrowright","arrowright"],"response_times":[419,245,538,362,333,439,218,194,188,185],"outcomes":[37,59,46,36,70,45,60,51,59,65],"screen_resolution":1,"trial_type":"horizons-trial","trial_index":115,"time_elapsed":654293,"internal_node_id":"0.0-111.0"},{"horizon":5,"rewards_L":[55,45,45,38,44],"rewards_R":[60,69,59,51,61],"key_presses":["arrowleft","arrowright","arrowright","arrowleft","arrowright"],"response_times":[277,258,369,315,525],"outcomes":[55,69,59,38,61],"screen_resolution":1,"trial_type":"horizons-trial","trial_index":116,"time_elapsed":656889,"internal_node_id":"0.0-112.0"},{"horizon":5,"rewards_L":[47,46,53,55,37],"rewards_R":[54,50,50,55,56],"key_presses":["arrowright","arrowright","arrowright","arrowleft","arrowleft"],"response_times":[304,286,321,537,1275],"outcomes":[54,50,50,55,37],"screen_resolution":1,"trial_type":"horizons-trial","trial_index":117,"time_elapsed":660243,"internal_node_id":"0.0-113.0"},{"horizon":5,"rewards_L":[33,38,44,27,31],"rewards_R":[62,47,49,47,58],"key_presses":["arrowright","arrowleft","arrowleft","arrowleft","arrowright"],"response_times":[533,267,371,434,316],"outcomes":[62,38,44,27,58],"screen_resolution":1,"trial_type":"horizons-trial","trial_index":118,"time_elapsed":663063,"internal_node_id":"0.0-114.0"},{"horizon":10,"rewards_L":[51,52,52,60,59,58,59,69,49,64],"rewards_R":[43,41,47,36,52,44,36,45,43,40],"key_presses":["arrowright","arrowright","arrowleft","arrowleft","arrowleft","arrowleft","arrowleft","arrowright","arrowleft","arrowleft"],"response_times":[349,358,324,350,1480,393,606,299,431,201],"outcomes":[43,41,52,60,59,58,59,45,49,64],"screen_resolution":1,"trial_type":"horizons-trial","trial_index":119,"time_elapsed":668620,"internal_node_id":"0.0-115.0"},{"horizon":5,"rewards_L":[52,53,56,52,58],"rewards_R":[77,75,75,66,75],"key_presses":["arrowleft","arrowright","arrowleft","arrowleft","arrowright"],"response_times":[415,258,290,600,582],"outcomes":[52,75,56,52,75],"screen_resolution":1,"trial_type":"horizons-trial","trial_index":120,"time_elapsed":671514,"internal_node_id":"0.0-116.0"},{"horizon":10,"rewards_L":[80,78,87,66,88,86,82,82,83,86],"rewards_R":[56,55,55,54,53,65,64,62,63,53],"key_presses":["arrowleft","arrowleft","arrowright","arrowleft","arrowright","arrowleft","arrowleft","arrowleft","arrowleft","arrowleft"],"response_times":[383,319,353,379,571,224,453,196,205,196],"outcomes":[80,78,55,66,53,86,82,82,83,86],"screen_resolution":1,"trial_type":"horizons-trial","trial_index":121,"time_elapsed":675605,"internal_node_id":"0.0-117.0"},{"horizon":10,"rewards_L":[28,46,27,51,43,45,33,44,41,47],"rewards_R":[32,20,20,38,24,29,30,27,18,25],"key_presses":["arrowleft","arrowright","arrowleft","arrowright","arrowleft","arrowright","arrowleft","arrowleft","arrowright","arrowleft"],"response_times":[403,311,277,895,582,787,455,347,342,576],"outcomes":[28,20,27,38,43,29,33,44,18,47],"screen_resolution":1,"trial_type":"horizons-trial","trial_index":122,"time_elapsed":681380,"internal_node_id":"0.0-118.0"},{"horizon":10,"rewards_L":[70,44,57,48,41,57,65,71,55,43],"rewards_R":[54,56,66,61,53,54,65,56,58,61],"key_presses":["arrowleft","arrowleft","arrowright","arrowright","arrowleft","arrowright","arrowright","arrowright","arrowright","arrowright"],"response_times":[370,388,421,439,3152,495,467,194,188,191],"outcomes":[70,44,66,61,41,54,65,56,58,61],"screen_resolution":1,"trial_type":"horizons-trial","trial_index":123,"time_elapsed":688446,"internal_node_id":"0.0-119.0"},{"horizon":10,"rewards_L":[61,57,64,67,45,62,55,61,59,61],"rewards_R":[35,34,33,34,29,36,22,24,25,20],"key_presses":["arrowright","arrowleft","arrowleft","arrowright","arrowleft","arrowleft","arrowleft","arrowleft","arrowleft","arrowleft"],"response_times":[286,348,480,299,484,388,311,185,185,176],"outcomes":[35,57,64,34,45,62,55,61,59,61],"screen_resolution":1,"trial_type":"horizons-trial","trial_index":124,"time_elapsed":692495,"internal_node_id":"0.0-120.0"},{"horizon":10,"rewards_L":[32,37,24,40,50,41,35,39,49,33],"rewards_R":[65,64,44,68,70,58,62,63,69,49],"key_presses":["arrowleft","arrowright","arrowleft","arrowright","arrowleft","arrowright","arrowright","arrowright","arrowright","arrowright"],"response_times":[402,263,689,332,529,351,197,178,169,202],"outcomes":[32,64,24,68,50,58,62,63,69,49],"screen_resolution":1,"trial_type":"horizons-trial","trial_index":125,"time_elapsed":696601,"internal_node_id":"0.0-121.0"},{"horizon":10,"rewards_L":[50,40,43,31,39,58,33,42,36,39],"rewards_R":[41,58,37,49,39,30,36,40,38,40],"key_presses":["arrowleft","arrowright","arrowleft","arrowleft","arrowright","arrowright","arrowleft","arrowleft","arrowright","arrowleft"],"response_times":[337,281,292,628,344,1411,653,341,404,799],"outcomes":[50,58,43,31,39,30,33,42,38,39],"screen_resolution":1,"trial_type":"horizons-trial","trial_index":126,"time_elapsed":702772,"internal_node_id":"0.0-122.0"},{"horizon":5,"rewards_L":[34,52,42,47,41],"rewards_R":[49,58,41,39,53],"key_presses":["arrowleft","arrowleft","arrowright","arrowright","arrowleft"],"response_times":[390,493,312,380,506],"outcomes":[34,52,41,39,41],"screen_resolution":1,"trial_type":"horizons-trial","trial_index":127,"time_elapsed":705689,"internal_node_id":"0.0-123.0"},{"horizon":5,"rewards_L":[71,82,78,71,50],"rewards_R":[37,50,42,47,33],"key_presses":["arrowright","arrowright","arrowleft","arrowleft","arrowleft"],"response_times":[339,474,269,553,301],"outcomes":[37,50,78,71,50],"screen_resolution":1,"trial_type":"horizons-trial","trial_index":128,"time_elapsed":708340,"internal_node_id":"0.0-124.0"},{"horizon":5,"rewards_L":[24,17,44,39,36],"rewards_R":[16,3,5,24,7],"key_presses":["arrowleft","arrowleft","arrowleft","arrowright","arrowright"],"response_times":[324,380,641,340,1260],"outcomes":[24,17,44,24,7],"screen_resolution":1,"trial_type":"horizons-trial","trial_index":129,"time_elapsed":712106,"internal_node_id":"0.0-125.0"},{"horizon":5,"rewards_L":[38,31,39,36,51],"rewards_R":[0,5,19,1,0],"key_presses":["arrowleft","arrowright","arrowright","arrowright","arrowleft"],"response_times":[356,294,371,455,422],"outcomes":[38,5,19,1,51],"screen_resolution":1,"trial_type":"horizons-trial","trial_index":130,"time_elapsed":714846,"internal_node_id":"0.0-126.0"},{"horizon":10,"rewards_L":[33,35,37,24,64,42,43,36,39,37],"rewards_R":[31,28,39,33,50,25,36,30,43,35],"key_presses":["arrowright","arrowright","arrowright","arrowleft","arrowleft","arrowright","arrowleft","arrowleft","arrowright","arrowleft"],"response_times":[505,365,415,337,320,1119,1270,442,606,418],"outcomes":[31,28,39,24,64,25,43,36,43,37],"screen_resolution":1,"trial_type":"horizons-trial","trial_index":131,"time_elapsed":721407,"internal_node_id":"0.0-127.0"},{"horizon":10,"rewards_L":[40,40,46,47,42,31,27,50,35,38],"rewards_R":[56,57,58,55,71,55,51,49,66,67],"key_presses":["arrowleft","arrowleft","arrowright","arrowright","arrowright","arrowright","arrowright","arrowright","arrowright","arrowright"],"response_times":[373,342,372,384,746,180,185,186,187,227],"outcomes":[40,40,58,55,71,55,51,49,66,67],"screen_resolution":1,"trial_type":"horizons-trial","trial_index":132,"time_elapsed":725365,"internal_node_id":"0.0-128.0"},{"horizon":10,"rewards_L":[10,12,12,7,3,17,8,12,12,14],"rewards_R":[31,45,32,32,41,36,33,32,41,38],"key_presses":["arrowright","arrowright","arrowright","arrowleft","arrowleft","arrowright","arrowright","arrowright","arrowright","arrowright"],"response_times":[365,313,283,387,257,604,208,174,182,176],"outcomes":[31,45,32,7,3,36,33,32,41,38],"screen_resolution":1,"trial_type":"horizons-trial","trial_index":133,"time_elapsed":729038,"internal_node_id":"0.0-129.0"},{"horizon":5,"rewards_L":[23,29,30,27,41],"rewards_R":[40,44,55,39,41],"key_presses":["arrowright","arrowright","arrowright","arrowleft","arrowleft"],"response_times":[446,347,393,466,468],"outcomes":[40,44,55,27,41],"screen_resolution":1,"trial_type":"horizons-trial","trial_index":134,"time_elapsed":731776,"internal_node_id":"0.0-130.0"},{"horizon":10,"rewards_L":[68,56,65,54,52,62,66,54,59,53],"rewards_R":[35,36,39,64,55,45,28,43,47,34],"key_presses":["arrowleft","arrowleft","arrowright","arrowleft","arrowright","arrowright","arrowleft","arrowright","arrowleft","arrowleft"],"response_times":[348,457,312,413,379,464,487,638,1451,1716],"outcomes":[68,56,39,54,55,45,66,43,59,53],"screen_resolution":1,"trial_type":"horizons-trial","trial_index":135,"time_elapsed":739191,"internal_node_id":"0.0-131.0"},{"horizon":10,"rewards_L":[54,72,61,38,61,52,55,65,71,55],"rewards_R":[82,86,83,88,81,94,83,84,96,95],"key_presses":["arrowleft","arrowright","arrowleft","arrowleft","arrowright","arrowright","arrowright","arrowright","arrowright","arrowright"],"response_times":[358,308,344,610,308,382,327,195,165,168],"outcomes":[54,86,61,38,81,94,83,84,96,95],"screen_resolution":1,"trial_type":"horizons-trial","trial_index":136,"time_elapsed":742993,"internal_node_id":"0.0-132.0"},{"horizon":10,"rewards_L":[61,49,34,31,39,31,34,39,44,39],"rewards_R":[18,21,28,20,14,23,23,20,17,14],"key_presses":["arrowleft","arrowright","arrowright","arrowleft","arrowright","arrowleft","arrowleft","arrowleft","arrowleft","arrowleft"],"response_times":[366,309,377,528,699,854,215,223,167,200],"outcomes":[61,21,28,31,14,31,34,39,44,39],"screen_resolution":1,"trial_type":"horizons-trial","trial_index":137,"time_elapsed":747651,"internal_node_id":"0.0-133.0"},{"horizon":10,"rewards_L":[53,59,47,61,67,60,53,64,60,66],"rewards_R":[46,32,39,40,27,22,23,39,40,42],"key_presses":["arrowleft","arrowright","arrowright","arrowright","arrowleft","arrowleft","arrowleft","arrowleft","arrowleft","arrowleft"],"response_times":[375,229,617,524,578,703,162,162,195,185],"outcomes":[53,32,39,40,67,60,53,64,60,66],"screen_resolution":1,"trial_type":"horizons-trial","trial_index":138,"time_elapsed":752152,"internal_node_id":"0.0-134.0"},{"horizon":10,"rewards_L":[44,61,47,62,54,56,53,55,36,51],"rewards_R":[53,54,57,53,67,62,60,59,69,63],"key_presses":["arrowright","arrowleft","arrowleft","arrowleft","arrowright","arrowright","arrowright","arrowright","arrowright","arrowright"],"response_times":[317,264,430,393,369,855,200,179,190,170],"outcomes":[53,61,47,62,67,62,60,59,69,63],"screen_resolution":1,"trial_type":"horizons-trial","trial_index":139,"time_elapsed":756195,"internal_node_id":"0.0-135.0"},{"horizon":10,"rewards_L":[28,33,36,36,27,51,37,33,22,43],"rewards_R":[34,29,30,27,35,33,41,23,30,44],"key_presses":["arrowleft","arrowright","arrowright","arrowright","arrowright","arrowleft","arrowleft","arrowleft","arrowleft","arrowleft"],"response_times":[292,305,349,335,471,377,196,220,214,199],"outcomes":[28,29,30,27,35,51,37,33,22,43],"screen_resolution":1,"trial_type":"horizons-trial","trial_index":140,"time_elapsed":759942,"internal_node_id":"0.0-136.0"},{"horizon":10,"rewards_L":[0,9,0,3,6,22,13,11,4,18],"rewards_R":[41,41,44,40,44,51,38,25,30,43],"key_presses":["arrowright","arrowright","arrowleft","arrowleft","arrowright","arrowright","arrowright","arrowright","arrowright","arrowright"],"response_times":[275,427,272,519,533,185,179,180,183,165],"outcomes":[41,41,0,3,44,51,38,25,30,43],"screen_resolution":1,"trial_type":"horizons-trial","trial_index":141,"time_elapsed":763693,"internal_node_id":"0.0-137.0"},{"horizon":5,"rewards_L":[89,77,82,70,83],"rewards_R":[61,53,56,66,69],"key_presses":["arrowleft","arrowleft","arrowright","arrowleft","arrowleft"],"response_times":[440,338,327,379,190],"outcomes":[89,77,56,70,83],"screen_resolution":1,"trial_type":"horizons-trial","trial_index":142,"time_elapsed":765956,"internal_node_id":"0.0-138.0"},{"horizon":5,"rewards_L":[61,47,63,68,63],"rewards_R":[64,75,66,67,62],"key_presses":["arrowright","arrowright","arrowleft","arrowright","arrowleft"],"response_times":[392,398,278,438,304],"outcomes":[64,75,63,67,63],"screen_resolution":1,"trial_type":"horizons-trial","trial_index":143,"time_elapsed":768447,"internal_node_id":"0.0-139.0"},{"horizon":5,"rewards_L":[43,32,44,25,26],"rewards_R":[35,53,38,55,35],"key_presses":["arrowright","arrowleft","arrowleft","arrowleft","arrowright"],"response_times":[399,321,375,631,326],"outcomes":[35,32,44,25,35],"screen_resolution":1,"trial_type":"horizons-trial","trial_index":144,"time_elapsed":771253,"internal_node_id":"0.0-140.0"},{"horizon":5,"rewards_L":[81,58,74,58,71],"rewards_R":[63,71,65,68,52],"key_presses":["arrowright","arrowleft","arrowright","arrowright","arrowright"],"response_times":[298,282,364,352,593],"outcomes":[63,58,65,68,52],"screen_resolution":1,"trial_type":"horizons-trial","trial_index":145,"time_elapsed":773855,"internal_node_id":"0.0-141.0"},{"horizon":10,"rewards_L":[63,46,70,65,61,61,56,67,52,54],"rewards_R":[68,80,75,81,72,65,57,57,53,70],"key_presses":["arrowleft","arrowright","arrowleft","arrowright","arrowleft","arrowright","arrowright","arrowright","arrowright","arrowright"],"response_times":[427,318,376,314,321,900,221,384,217,198],"outcomes":[63,80,70,81,61,65,57,57,53,70],"screen_resolution":1,"trial_type":"horizons-trial","trial_index":146,"time_elapsed":778261,"internal_node_id":"0.0-142.0"},{"horizon":5,"rewards_L":[48,37,58,51,44],"rewards_R":[55,50,59,65,49],"key_presses":["arrowright","arrowright","arrowleft","arrowright","arrowright"],"response_times":[352,320,312,328,648],"outcomes":[55,50,58,65,49],"screen_resolution":1,"trial_type":"horizons-trial","trial_index":147,"time_elapsed":781062,"internal_node_id":"0.0-143.0"},{"horizon":5,"rewards_L":[60,59,59,58,51],"rewards_R":[39,34,52,38,28],"key_presses":["arrowright","arrowleft","arrowright","arrowright","arrowright"],"response_times":[312,284,288,366,388],"outcomes":[39,59,52,38,28],"screen_resolution":1,"trial_type":"horizons-trial","trial_index":148,"time_elapsed":783249,"internal_node_id":"0.0-144.0"},{"horizon":5,"rewards_L":[27,35,38,47,41],"rewards_R":[35,34,47,26,42],"key_presses":["arrowright","arrowleft","arrowleft","arrowleft","arrowleft"],"response_times":[341,319,513,416,1027],"outcomes":[35,35,38,47,41],"screen_resolution":1,"trial_type":"horizons-trial","trial_index":149,"time_elapsed":786673,"internal_node_id":"0.0-145.0"},{"horizon":10,"rewards_L":[42,54,57,43,50,50,57,42,44,42],"rewards_R":[48,48,39,46,29,56,52,33,40,37],"key_presses":["arrowright","arrowleft","arrowleft","arrowright","arrowleft","arrowleft","arrowleft","arrowleft","arrowleft","arrowleft"],"response_times":[399,279,384,330,1900,223,207,199,194,181],"outcomes":[48,54,57,46,50,50,57,42,44,42],"screen_resolution":1,"trial_type":"horizons-trial","trial_index":150,"time_elapsed":791579,"internal_node_id":"0.0-146.0"},{"horizon":10,"rewards_L":[57,53,51,62,62,51,60,66,53,64],"rewards_R":[74,72,81,61,77,63,83,63,83,87],"key_presses":["arrowleft","arrowright","arrowleft","arrowleft","arrowright","arrowright","arrowright","arrowright","arrowright","arrowright"],"response_times":[297,204,269,690,297,204,209,177,183,188],"outcomes":[57,72,51,62,77,63,83,63,83,87],"screen_resolution":1,"trial_type":"horizons-trial","trial_index":151,"time_elapsed":795107,"internal_node_id":"0.0-147.0"},{"horizon":10,"rewards_L":[69,62,49,58,53,66,46,55,58,56],"rewards_R":[65,53,51,61,57,56,66,43,64,64],"key_presses":["arrowright","arrowleft","arrowleft","arrowleft","arrowright","arrowright","arrowright","arrowright","arrowright","arrowright"],"response_times":[439,399,414,489,397,552,514,214,201,221],"outcomes":[65,62,49,58,57,56,66,43,64,64],"screen_resolution":1,"trial_type":"horizons-trial","trial_index":152,"time_elapsed":799752,"internal_node_id":"0.0-148.0"},{"horizon":5,"rewards_L":[16,38,19,29,39],"rewards_R":[51,33,49,40,34],"key_presses":["arrowright","arrowleft","arrowleft","arrowleft","arrowright"],"response_times":[292,347,304,578,517],"outcomes":[51,38,19,29,34],"screen_resolution":1,"trial_type":"horizons-trial","trial_index":153,"time_elapsed":802396,"internal_node_id":"0.0-149.0"},{"horizon":5,"rewards_L":[46,43,49,48,41],"rewards_R":[50,44,51,53,67],"key_presses":["arrowleft","arrowright","arrowleft","arrowleft","arrowleft"],"response_times":[307,317,304,381,1255],"outcomes":[46,44,49,48,41],"screen_resolution":1,"trial_type":"horizons-trial","trial_index":154,"time_elapsed":805646,"internal_node_id":"0.0-150.0"},{"horizon":5,"rewards_L":[76,59,68,70,71],"rewards_R":[62,80,72,55,78],"key_presses":["arrowleft","arrowright","arrowleft","arrowleft","arrowleft"],"response_times":[347,268,278,306,544],"outcomes":[76,80,68,70,71],"screen_resolution":1,"trial_type":"horizons-trial","trial_index":155,"time_elapsed":808143,"internal_node_id":"0.0-151.0"},{"horizon":10,"rewards_L":[78,57,47,53,79,51,64,50,49,59],"rewards_R":[66,59,48,58,67,54,66,72,71,67],"key_presses":["arrowleft","arrowleft","arrowright","arrowright","arrowleft","arrowleft","arrowleft","arrowleft","arrowleft","arrowleft"],"response_times":[372,301,330,455,331,1323,194,407,212,229],"outcomes":[78,57,48,58,79,51,64,50,49,59],"screen_resolution":1,"trial_type":"horizons-trial","trial_index":156,"time_elapsed":812992,"internal_node_id":"0.0-152.0"},{"horizon":10,"rewards_L":[50,52,46,48,57,46,53,40,38,53],"rewards_R":[32,42,39,35,38,42,49,39,35,42],"key_presses":["arrowleft","arrowright","arrowright","arrowleft","arrowleft","arrowleft","arrowleft","arrowleft","arrowleft","arrowleft"],"response_times":[401,312,414,3057,2728,1247,259,918,243,248],"outcomes":[50,42,39,48,57,46,53,40,38,53],"screen_resolution":1,"trial_type":"horizons-trial","trial_index":157,"time_elapsed":823429,"internal_node_id":"0.0-153.0"},{"horizon":10,"rewards_L":[44,46,38,40,56,37,41,47,44,40],"rewards_R":[41,35,42,60,35,33,35,44,27,39],"key_presses":["arrowleft","arrowleft","arrowright","arrowleft","arrowright","arrowleft","arrowleft","arrowleft","arrowleft","arrowleft"],"response_times":[403,289,520,463,1259,366,353,190,177,209],"outcomes":[44,46,42,40,35,37,41,47,44,40],"screen_resolution":1,"trial_type":"horizons-trial","trial_index":158,"time_elapsed":828476,"internal_node_id":"0.0-154.0"},{"horizon":10,"rewards_L":[69,58,49,64,52,59,56,52,63,58],"rewards_R":[42,54,46,45,55,39,58,49,39,56],"key_presses":["arrowleft","arrowright","arrowright","arrowright","arrowleft","arrowleft","arrowright","arrowleft","arrowright","arrowright"],"response_times":[379,300,535,396,335,370,511,455,777,387],"outcomes":[69,54,46,45,52,59,58,52,39,56],"screen_resolution":1,"trial_type":"horizons-trial","trial_index":159,"time_elapsed":833543,"internal_node_id":"0.0-155.0"},{"horizon":10,"rewards_L":[37,31,44,37,48,40,38,35,48,45],"rewards_R":[49,33,32,39,65,32,53,32,43,41],"key_presses":["arrowleft","arrowleft","arrowright","arrowright","arrowright","arrowleft","arrowright","arrowright","arrowright","arrowright"],"response_times":[407,303,291,263,464,584,559,207,203,196],"outcomes":[37,31,32,39,65,40,53,32,43,41],"screen_resolution":1,"trial_type":"horizons-trial","trial_index":160,"time_elapsed":837697,"internal_node_id":"0.0-156.0"},{"horizon":10,"rewards_L":[83,100,84,86,84,86,91,100,98,81],"rewards_R":[62,58,64,66,62,60,61,54,59,50],"key_presses":["arrowright","arrowright","arrowleft","arrowleft","arrowleft","arrowleft","arrowleft","arrowleft","arrowleft","arrowleft"],"response_times":[320,263,328,297,422,187,189,195,230,190],"outcomes":[62,58,84,86,84,86,91,100,98,81],"screen_resolution":1,"trial_type":"horizons-trial","trial_index":161,"time_elapsed":840824,"internal_node_id":"0.0-157.0"},{"horizon":10,"rewards_L":[38,26,26,48,34,41,32,23,38,46],"rewards_R":[32,46,51,50,38,42,68,63,50,51],"key_presses":["arrowleft","arrowright","arrowleft","arrowleft","arrowright","arrowright","arrowleft","arrowleft","arrowleft","arrowleft"],"response_times":[479,481,467,732,1665,773,1203,194,199,191],"outcomes":[38,46,26,48,38,42,32,23,38,46],"screen_resolution":1,"trial_type":"horizons-trial","trial_index":162,"time_elapsed":847895,"internal_node_id":"0.0-158.0"},{"horizon":5,"rewards_L":[99,97,70,99,84],"rewards_R":[63,68,70,60,58],"key_presses":["arrowleft","arrowleft","arrowright","arrowleft","arrowleft"],"response_times":[353,513,841,211,187],"outcomes":[99,97,70,99,84],"screen_resolution":1,"trial_type":"horizons-trial","trial_index":163,"time_elapsed":850728,"internal_node_id":"0.0-159.0"},{"horizon":10,"rewards_L":[56,69,79,60,64,63,67,70,66,52],"rewards_R":[42,52,40,46,50,51,46,58,46,50],"key_presses":["arrowleft","arrowright","arrowright","arrowright","arrowleft","arrowleft","arrowleft","arrowleft","arrowleft","arrowleft"],"response_times":[400,288,522,464,396,346,247,185,166,225],"outcomes":[56,52,40,46,64,63,67,70,66,52],"screen_resolution":1,"trial_type":"horizons-trial","trial_index":164,"time_elapsed":854643,"internal_node_id":"0.0-160.0"},{"horizon":10,"rewards_L":[47,25,42,45,41,45,50,36,45,39],"rewards_R":[27,11,11,14,31,28,23,24,17,30],"key_presses":["arrowleft","arrowright","arrowright","arrowright","arrowleft","arrowleft","arrowleft","arrowleft","arrowleft","arrowleft"],"response_times":[380,262,546,318,374,226,204,181,203,198],"outcomes":[47,11,11,14,41,45,50,36,45,39],"screen_resolution":1,"trial_type":"horizons-trial","trial_index":165,"time_elapsed":858264,"internal_node_id":"0.0-161.0"},{"horizon":10,"rewards_L":[40,46,22,45,33,27,39,48,34,39],"rewards_R":[66,64,57,49,61,61,74,56,64,66],"key_presses":["arrowleft","arrowright","arrowleft","arrowright","arrowright","arrowright","arrowright","arrowright","arrowright","arrowright"],"response_times":[295,284,285,404,372,272,219,185,181,199],"outcomes":[40,64,22,49,61,61,74,56,64,66],"screen_resolution":1,"trial_type":"horizons-trial","trial_index":166,"time_elapsed":861612,"internal_node_id":"0.0-162.0"},{"horizon":5,"rewards_L":[66,57,51,65,64],"rewards_R":[53,37,36,40,45],"key_presses":["arrowleft","arrowright","arrowright","arrowleft","arrowleft"],"response_times":[331,212,516,206,196],"outcomes":[66,37,36,65,64],"screen_resolution":1,"trial_type":"horizons-trial","trial_index":167,"time_elapsed":863896,"internal_node_id":"0.0-163.0"},{"horizon":10,"rewards_L":[13,32,33,21,28,27,39,22,35,31],"rewards_R":[21,33,33,34,32,29,39,38,36,58],"key_presses":["arrowright","arrowleft","arrowleft","arrowleft","arrowleft","arrowleft","arrowright","arrowright","arrowright","arrowright"],"response_times":[336,237,422,569,211,410,553,200,190,186],"outcomes":[21,32,33,21,28,27,39,38,36,58],"screen_resolution":1,"trial_type":"horizons-trial","trial_index":168,"time_elapsed":868139,"internal_node_id":"0.0-164.0"},{"horizon":10,"rewards_L":[33,40,42,28,23,34,56,33,32,34],"rewards_R":[46,55,50,55,52,48,45,57,60,65],"key_presses":["arrowright","arrowright","arrowleft","arrowright","arrowright","arrowright","arrowright","arrowright","arrowright","arrowright"],"response_times":[425,305,328,627,256,196,180,177,168,273],"outcomes":[46,55,42,55,52,48,45,57,60,65],"screen_resolution":1,"trial_type":"horizons-trial","trial_index":169,"time_elapsed":871807,"internal_node_id":"0.0-165.0"},{"horizon":5,"rewards_L":[51,54,45,35,48],"rewards_R":[48,43,35,50,40],"key_presses":["arrowleft","arrowright","arrowright","arrowleft","arrowleft"],"response_times":[365,257,746,374,250],"outcomes":[51,43,35,35,48],"screen_resolution":1,"trial_type":"horizons-trial","trial_index":170,"time_elapsed":874659,"internal_node_id":"0.0-166.0"},{"horizon":5,"rewards_L":[63,48,67,65,54],"rewards_R":[89,86,92,86,87],"key_presses":["arrowleft","arrowright","arrowleft","arrowleft","arrowright"],"response_times":[409,253,426,801,277],"outcomes":[63,86,67,65,87],"screen_resolution":1,"trial_type":"horizons-trial","trial_index":171,"time_elapsed":877965,"internal_node_id":"0.0-167.0"},{"horizon":5,"rewards_L":[16,15,23,32,20],"rewards_R":[27,30,59,28,32],"key_presses":["arrowleft","arrowright","arrowleft","arrowright","arrowright"],"response_times":[619,264,488,307,511],"outcomes":[16,30,23,28,32],"screen_resolution":1,"trial_type":"horizons-trial","trial_index":172,"time_elapsed":880875,"internal_node_id":"0.0-168.0"},{"horizon":10,"rewards_L":[38,38,34,39,26,58,30,53,46,31],"rewards_R":[69,42,67,61,52,59,64,62,53,55],"key_presses":["arrowright","arrowright","arrowleft","arrowright","arrowleft","arrowright","arrowright","arrowright","arrowright","arrowright"],"response_times":[400,636,393,471,505,359,194,184,162,158],"outcomes":[69,42,34,61,26,59,64,62,53,55],"screen_resolution":1,"trial_type":"horizons-trial","trial_index":173,"time_elapsed":885051,"internal_node_id":"0.0-169.0"},{"horizon":5,"rewards_L":[88,79,66,95,82],"rewards_R":[63,57,59,61,63],"key_presses":["arrowleft","arrowleft","arrowright","arrowright","arrowleft"],"response_times":[690,349,440,523,316],"outcomes":[88,79,59,61,82],"screen_resolution":1,"trial_type":"horizons-trial","trial_index":174,"time_elapsed":887966,"internal_node_id":"0.0-170.0"},{"horizon":5,"rewards_L":[50,50,71,63,55],"rewards_R":[58,58,56,57,53],"key_presses":["arrowleft","arrowright","arrowright","arrowright","arrowright"],"response_times":[515,295,403,767,391],"outcomes":[50,58,56,57,53],"screen_resolution":1,"trial_type":"horizons-trial","trial_index":175,"time_elapsed":890959,"internal_node_id":"0.0-171.0"},{"horizon":5,"rewards_L":[55,58,64,65,68],"rewards_R":[71,57,77,63,68],"key_presses":["arrowright","arrowright","arrowleft","arrowright","arrowleft"],"response_times":[305,424,355,358,4656],"outcomes":[71,57,64,63,68],"screen_resolution":1,"trial_type":"horizons-trial","trial_index":176,"time_elapsed":897573,"internal_node_id":"0.0-172.0"},{"horizon":10,"rewards_L":[37,32,24,28,36,37,42,25,20,23],"rewards_R":[64,54,68,59,55,46,72,58,51,53],"key_presses":["arrowleft","arrowright","arrowright","arrowleft","arrowright","arrowright","arrowright","arrowright","arrowright","arrowright"],"response_times":[440,248,321,331,430,203,168,183,180,286],"outcomes":[37,54,68,28,55,46,72,58,51,53],"screen_resolution":1,"trial_type":"horizons-trial","trial_index":177,"time_elapsed":901028,"internal_node_id":"0.0-173.0"},{"horizon":10,"rewards_L":[54,44,35,31,46,46,47,44,41,54],"rewards_R":[56,69,75,69,62,71,62,53,49,56],"key_presses":["arrowright","arrowright","arrowleft","arrowleft","arrowright","arrowright","arrowright","arrowright","arrowright","arrowright"],"response_times":[311,222,346,422,199,172,189,192,180,194],"outcomes":[56,69,35,31,62,71,62,53,49,56],"screen_resolution":1,"trial_type":"horizons-trial","trial_index":178,"time_elapsed":904061,"internal_node_id":"0.0-174.0"},{"horizon":5,"rewards_L":[41,39,38,47,36],"rewards_R":[54,69,50,48,56],"key_presses":["arrowright","arrowleft","arrowleft","arrowleft","arrowright"],"response_times":[324,335,393,518,341],"outcomes":[54,39,38,47,56],"screen_resolution":1,"trial_type":"horizons-trial","trial_index":179,"time_elapsed":906590,"internal_node_id":"0.0-175.0"},{"horizon":5,"rewards_L":[36,30,34,43,30],"rewards_R":[31,42,41,35,28],"key_presses":["arrowleft","arrowright","arrowleft","arrowright","arrowright"],"response_times":[417,256,444,257,187],"outcomes":[36,42,34,35,28],"screen_resolution":1,"trial_type":"horizons-trial","trial_index":180,"time_elapsed":908656,"internal_node_id":"0.0-176.0"},{"horizon":5,"rewards_L":[39,46,45,41,42],"rewards_R":[51,49,57,51,52],"key_presses":["arrowleft","arrowright","arrowright","arrowleft","arrowright"],"response_times":[649,278,417,380,192],"outcomes":[39,49,57,41,52],"screen_resolution":1,"trial_type":"horizons-trial","trial_index":181,"time_elapsed":911129,"internal_node_id":"0.0-177.0"},{"horizon":5,"rewards_L":[47,60,55,62,64],"rewards_R":[35,52,47,70,49],"key_presses":["arrowleft","arrowright","arrowright","arrowright","arrowright"],"response_times":[512,234,338,424,364],"outcomes":[47,52,47,70,49],"screen_resolution":1,"trial_type":"horizons-trial","trial_index":182,"time_elapsed":913790,"internal_node_id":"0.0-178.0"},{"horizon":5,"rewards_L":[62,81,60,62,60],"rewards_R":[75,64,55,70,52],"key_presses":["arrowright","arrowleft","arrowleft","arrowright","arrowright"],"response_times":[283,407,537,325,1524],"outcomes":[75,81,60,70,52],"screen_resolution":1,"trial_type":"horizons-trial","trial_index":183,"time_elapsed":917676,"internal_node_id":"0.0-179.0"},{"horizon":5,"rewards_L":[65,60,75,45,58],"rewards_R":[83,82,92,71,64],"key_presses":["arrowright","arrowright","arrowleft","arrowright","arrowright"],"response_times":[340,303,395,431,208],"outcomes":[83,82,75,71,64],"screen_resolution":1,"trial_type":"horizons-trial","trial_index":184,"time_elapsed":920147,"internal_node_id":"0.0-180.0"},{"horizon":5,"rewards_L":[0,10,0,6,17],"rewards_R":[42,48,49,63,33],"key_presses":["arrowright","arrowleft","arrowleft","arrowleft","arrowright"],"response_times":[310,260,414,562,371],"outcomes":[42,10,0,6,33],"screen_resolution":1,"trial_type":"horizons-trial","trial_index":185,"time_elapsed":922832,"internal_node_id":"0.0-181.0"},{"horizon":10,"rewards_L":[82,76,79,78,93,71,72,83,77,84],"rewards_R":[65,67,52,52,61,47,71,66,62,52],"key_presses":["arrowleft","arrowleft","arrowright","arrowright","arrowleft","arrowleft","arrowleft","arrowleft","arrowleft","arrowleft"],"response_times":[427,313,350,344,313,211,199,197,234,210],"outcomes":[82,76,52,52,93,71,72,83,77,84],"screen_resolution":1,"trial_type":"horizons-trial","trial_index":186,"time_elapsed":926234,"internal_node_id":"0.0-182.0"},{"horizon":5,"rewards_L":[44,48,37,41,44],"rewards_R":[33,27,27,16,15],"key_presses":["arrowleft","arrowleft","arrowleft","arrowright","arrowleft"],"response_times":[450,283,299,351,889],"outcomes":[44,48,37,16,44],"screen_resolution":1,"trial_type":"horizons-trial","trial_index":187,"time_elapsed":929232,"internal_node_id":"0.0-183.0"},{"horizon":10,"rewards_L":[59,57,47,62,60,59,50,72,59,56],"rewards_R":[42,44,45,47,30,51,50,32,53,37],"key_presses":["arrowright","arrowleft","arrowright","arrowright","arrowleft","arrowleft","arrowleft","arrowleft","arrowleft","arrowleft"],"response_times":[340,281,299,324,322,928,221,180,224,213],"outcomes":[42,57,45,47,60,59,50,72,59,56],"screen_resolution":1,"trial_type":"horizons-trial","trial_index":188,"time_elapsed":933197,"internal_node_id":"0.0-184.0"},{"horizon":10,"rewards_L":[57,50,77,69,52,47,68,54,66,68],"rewards_R":[16,22,27,34,20,14,23,34,34,29],"key_presses":["arrowleft","arrowright","arrowright","arrowleft","arrowleft","arrowleft","arrowleft","arrowleft","arrowleft","arrowleft"],"response_times":[402,273,510,281,342,316,208,207,181,242],"outcomes":[57,22,27,69,52,47,68,54,66,68],"screen_resolution":1,"trial_type":"horizons-trial","trial_index":189,"time_elapsed":936725,"internal_node_id":"0.0-185.0"},{"horizon":10,"rewards_L":[40,49,58,49,68,48,46,55,35,54],"rewards_R":[59,58,45,68,63,57,49,62,49,75],"key_presses":["arrowright","arrowleft","arrowleft","arrowright","arrowright","arrowright","arrowright","arrowright","arrowright","arrowright"],"response_times":[626,290,337,288,336,368,185,175,189,203],"outcomes":[59,49,58,68,63,57,49,62,49,75],"screen_resolution":1,"trial_type":"horizons-trial","trial_index":190,"time_elapsed":940556,"internal_node_id":"0.0-186.0"},{"horizon":5,"rewards_L":[81,80,74,72,76],"rewards_R":[32,36,38,36,32],"key_presses":["arrowright","arrowleft","arrowright","arrowleft","arrowleft"],"response_times":[254,291,412,225,181],"outcomes":[32,80,38,72,76],"screen_resolution":1,"trial_type":"horizons-trial","trial_index":191,"time_elapsed":942816,"internal_node_id":"0.0-187.0"},{"horizon":5,"rewards_L":[29,37,21,23,31],"rewards_R":[27,39,44,48,33],"key_presses":["arrowright","arrowright","arrowright","arrowleft","arrowleft"],"response_times":[283,360,554,477,256],"outcomes":[27,39,44,23,31],"screen_resolution":1,"trial_type":"horizons-trial","trial_index":192,"time_elapsed":945803,"internal_node_id":"0.0-188.0"},{"horizon":5,"rewards_L":[72,56,58,54,56],"rewards_R":[43,63,63,53,47],"key_presses":["arrowleft","arrowleft","arrowright","arrowleft","arrowright"],"response_times":[514,319,686,408,1499],"outcomes":[72,56,63,54,47],"screen_resolution":1,"trial_type":"horizons-trial","trial_index":193,"time_elapsed":949881,"internal_node_id":"0.0-189.0"},{"horizon":10,"rewards_L":[49,39,52,51,44,42,57,48,61,69],"rewards_R":[55,58,66,38,68,59,56,56,61,58],"key_presses":["arrowright","arrowleft","arrowright","arrowleft","arrowright","arrowright","arrowright","arrowright","arrowright","arrowright"],"response_times":[345,307,313,445,304,379,222,207,226,295],"outcomes":[55,39,66,51,68,59,56,56,61,58],"screen_resolution":1,"trial_type":"horizons-trial","trial_index":194,"time_elapsed":953699,"internal_node_id":"0.0-190.0"},{"horizon":5,"rewards_L":[30,46,43,42,36],"rewards_R":[60,39,43,56,40],"key_presses":["arrowleft","arrowright","arrowleft","arrowright","arrowright"],"response_times":[319,229,500,240,544],"outcomes":[30,39,43,56,40],"screen_resolution":1,"trial_type":"horizons-trial","trial_index":195,"time_elapsed":956285,"internal_node_id":"0.0-191.0"},{"horizon":5,"rewards_L":[34,47,32,45,41],"rewards_R":[58,60,60,58,68],"key_presses":["arrowright","arrowleft","arrowright","arrowleft","arrowright"],"response_times":[514,288,260,440,195],"outcomes":[58,47,60,45,68],"screen_resolution":1,"trial_type":"horizons-trial","trial_index":196,"time_elapsed":958676,"internal_node_id":"0.0-192.0"},{"horizon":10,"rewards_L":[57,68,57,68,67,67,44,48,61,54],"rewards_R":[36,47,35,46,72,37,52,56,29,54],"key_presses":["arrowleft","arrowright","arrowright","arrowleft","arrowright","arrowleft","arrowleft","arrowleft","arrowleft","arrowleft"],"response_times":[362,225,453,414,542,73,185,190,185,195],"outcomes":[57,47,35,68,72,67,44,48,61,54],"screen_resolution":1,"trial_type":"horizons-trial","trial_index":197,"time_elapsed":962410,"internal_node_id":"0.0-193.0"},{"horizon":5,"rewards_L":[54,68,51,67,55],"rewards_R":[46,37,29,46,52],"key_presses":["arrowright","arrowleft","arrowleft","arrowright","arrowleft"],"response_times":[272,277,422,528,425],"outcomes":[46,68,51,46,55],"screen_resolution":1,"trial_type":"horizons-trial","trial_index":198,"time_elapsed":965003,"internal_node_id":"0.0-194.0"},{"horizon":10,"rewards_L":[71,63,65,66,74,76,66,56,77,59],"rewards_R":[49,42,36,34,26,44,32,37,30,54],"key_presses":["arrowleft","arrowleft","arrowright","arrowleft","arrowleft","arrowleft","arrowleft","arrowleft","arrowleft","arrowleft"],"response_times":[376,381,560,394,324,241,191,214,215,233],"outcomes":[71,63,36,66,74,76,66,56,77,59],"screen_resolution":1,"trial_type":"horizons-trial","trial_index":199,"time_elapsed":968738,"internal_node_id":"0.0-195.0"},{"horizon":10,"rewards_L":[44,38,28,32,22,46,34,47,32,33],"rewards_R":[58,55,52,62,45,56,40,60,62,53],"key_presses":["arrowright","arrowleft","arrowleft","arrowright","arrowleft","arrowright","arrowright","arrowright","arrowright","arrowright"],"response_times":[332,279,778,2264,917,516,419,234,206,196],"outcomes":[58,38,28,62,22,56,40,60,62,53],"screen_resolution":1,"trial_type":"horizons-trial","trial_index":200,"time_elapsed":975951,"internal_node_id":"0.0-196.0"},{"horizon":10,"rewards_L":[42,43,58,49,61,46,49,53,52,47],"rewards_R":[65,51,62,54,58,56,53,74,63,63],"key_presses":["arrowright","arrowright","arrowright","arrowleft","arrowleft","arrowright","arrowleft","arrowleft","arrowright","arrowright"],"response_times":[304,441,348,604,645,311,521,678,346,202],"outcomes":[65,51,62,49,61,56,49,53,63,63],"screen_resolution":1,"trial_type":"horizons-trial","trial_index":201,"time_elapsed":981165,"internal_node_id":"0.0-197.0"},{"horizon":10,"rewards_L":[84,64,67,62,62,67,69,70,61,62],"rewards_R":[57,61,60,43,63,55,59,50,62,58],"key_presses":["arrowright","arrowleft","arrowright","arrowright","arrowleft","arrowleft","arrowleft","arrowleft","arrowleft","arrowleft"],"response_times":[253,336,320,474,280,502,274,222,192,207],"outcomes":[57,64,60,43,62,67,69,70,61,62],"screen_resolution":1,"trial_type":"horizons-trial","trial_index":202,"time_elapsed":985290,"internal_node_id":"0.0-198.0"},{"horizon":10,"rewards_L":[45,45,66,56,46,55,49,65,69,74],"rewards_R":[93,88,93,77,92,96,79,94,92,98],"key_presses":["arrowright","arrowright","arrowleft","arrowright","arrowright","arrowright","arrowright","arrowright","arrowright","arrowright"],"response_times":[358,323,311,272,196,164,175,184,170,191],"outcomes":[93,88,66,77,92,96,79,94,92,98],"screen_resolution":1,"trial_type":"horizons-trial","trial_index":203,"time_elapsed":988174,"internal_node_id":"0.0-199.0"},{"horizon":10,"rewards_L":[81,84,71,71,80,84,75,89,84,98],"rewards_R":[60,56,71,53,66,51,43,71,60,68],"key_presses":["arrowright","arrowleft","arrowleft","arrowright","arrowleft","arrowleft","arrowleft","arrowleft","arrowleft","arrowleft"],"response_times":[8553,244,306,361,229,179,179,173,175,212],"outcomes":[60,84,71,53,80,84,75,89,84,98],"screen_resolution":1,"trial_type":"horizons-trial","trial_index":204,"time_elapsed":999468,"internal_node_id":"0.0-200.0"},{"horizon":5,"rewards_L":[31,34,25,24,50],"rewards_R":[58,68,71,44,57],"key_presses":["arrowleft","arrowleft","arrowright","arrowright","arrowright"],"response_times":[432,510,293,404,823],"outcomes":[31,34,71,44,57],"screen_resolution":1,"trial_type":"horizons-trial","trial_index":205,"time_elapsed":1002533,"internal_node_id":"0.0-201.0"},{"horizon":10,"rewards_L":[24,40,48,45,40,41,29,35,30,35],"rewards_R":[16,9,28,12,18,9,21,12,11,11],"key_presses":["arrowleft","arrowleft","arrowleft","arrowright","arrowright","arrowleft","arrowleft","arrowleft","arrowleft","arrowleft"],"response_times":[449,401,363,281,286,427,199,212,200,219],"outcomes":[24,40,48,12,18,41,29,35,30,35],"screen_resolution":1,"trial_type":"horizons-trial","trial_index":206,"time_elapsed":1006387,"internal_node_id":"0.0-202.0"},{"horizon":10,"rewards_L":[44,55,25,37,65,39,44,33,37,44],"rewards_R":[30,11,43,22,42,22,27,20,19,33],"key_presses":["arrowleft","arrowleft","arrowleft","arrowright","arrowleft","arrowleft","arrowleft","arrowleft","arrowleft","arrowleft"],"response_times":[327,249,381,316,266,232,258,241,210,188],"outcomes":[44,55,25,22,65,39,44,33,37,44],"screen_resolution":1,"trial_type":"horizons-trial","trial_index":207,"time_elapsed":1009747,"internal_node_id":"0.0-203.0"},{"horizon":10,"rewards_L":[59,65,67,65,53,58,56,58,52,61],"rewards_R":[68,70,83,77,79,73,69,81,75,77],"key_presses":["arrowright","arrowleft","arrowright","arrowleft","arrowright","arrowright","arrowright","arrowright","arrowright","arrowright"],"response_times":[369,204,436,336,416,215,192,208,180,332],"outcomes":[68,65,83,65,79,73,69,81,75,77],"screen_resolution":1,"trial_type":"horizons-trial","trial_index":208,"time_elapsed":1013403,"internal_node_id":"0.0-204.0"},{"horizon":10,"rewards_L":[67,68,76,60,62,72,70,68,58,72],"rewards_R":[64,64,51,60,79,68,52,76,59,68],"key_presses":["arrowleft","arrowleft","arrowright","arrowleft","arrowleft","arrowright","arrowright","arrowleft","arrowleft","arrowleft"],"response_times":[346,280,366,443,413,402,1164,596,249,238],"outcomes":[67,68,51,60,62,68,52,68,58,72],"screen_resolution":1,"trial_type":"horizons-trial","trial_index":209,"time_elapsed":1018689,"internal_node_id":"0.0-205.0"},{"horizon":5,"rewards_L":[28,19,32,24,41],"rewards_R":[44,37,46,36,47],"key_presses":["arrowleft","arrowleft","arrowright","arrowright","arrowright"],"response_times":[327,303,472,381,203],"outcomes":[28,19,46,36,47],"screen_resolution":1,"trial_type":"horizons-trial","trial_index":210,"time_elapsed":1021106,"internal_node_id":"0.0-206.0"},{"horizon":10,"rewards_L":[56,50,64,50,54,62,61,59,77,46],"rewards_R":[67,58,47,50,50,57,47,50,46,41],"key_presses":["arrowleft","arrowleft","arrowright","arrowright","arrowleft","arrowright","arrowright","arrowright","arrowright","arrowright"],"response_times":[413,311,765,936,752,430,825,220,184,208],"outcomes":[56,50,47,50,54,57,47,50,46,41],"screen_resolution":1,"trial_type":"horizons-trial","trial_index":211,"time_elapsed":1026883,"internal_node_id":"0.0-207.0"},{"horizon":5,"rewards_L":[38,26,31,46,40],"rewards_R":[11,28,2,19,20],"key_presses":["arrowleft","arrowleft","arrowright","arrowright","arrowleft"],"response_times":[307,330,271,933,279],"outcomes":[38,26,2,19,40],"screen_resolution":1,"trial_type":"horizons-trial","trial_index":212,"time_elapsed":1029660,"internal_node_id":"0.0-208.0"},{"horizon":10,"rewards_L":[2,3,23,17,7,14,6,0,6,12],"rewards_R":[49,37,55,48,46,40,42,41,41,59],"key_presses":["arrowright","arrowleft","arrowleft","arrowleft","arrowright","arrowright","arrowright","arrowright","arrowright","arrowright"],"response_times":[343,255,351,573,293,265,200,184,182,228],"outcomes":[49,3,23,17,46,40,42,41,41,59],"screen_resolution":1,"trial_type":"horizons-trial","trial_index":213,"time_elapsed":1033665,"internal_node_id":"0.0-209.0"},{"horizon":5,"rewards_L":[62,61,68,54,58],"rewards_R":[60,42,37,63,59],"key_presses":["arrowleft","arrowleft","arrowleft","arrowright","arrowright"],"response_times":[466,403,389,294,1012],"outcomes":[62,61,68,63,59],"screen_resolution":1,"trial_type":"horizons-trial","trial_index":214,"time_elapsed":1036924,"internal_node_id":"0.0-210.0"},{"horizon":5,"rewards_L":[83,72,78,48,73],"rewards_R":[59,57,68,53,57],"key_presses":["arrowleft","arrowright","arrowright","arrowleft","arrowleft"],"response_times":[431,257,439,412,196],"outcomes":[83,57,68,48,73],"screen_resolution":1,"trial_type":"horizons-trial","trial_index":215,"time_elapsed":1039500,"internal_node_id":"0.0-211.0"},{"horizon":10,"rewards_L":[52,57,43,66,59,59,53,66,65,57],"rewards_R":[61,62,65,71,67,50,59,74,63,65],"key_presses":["arrowleft","arrowright","arrowleft","arrowleft","arrowright","arrowright","arrowright","arrowright","arrowright","arrowright"],"response_times":[272,276,309,370,325,452,276,201,213,177],"outcomes":[52,62,43,66,67,50,59,74,63,65],"screen_resolution":1,"trial_type":"horizons-trial","trial_index":216,"time_elapsed":1043267,"internal_node_id":"0.0-212.0"},{"horizon":5,"rewards_L":[61,68,48,43,49],"rewards_R":[87,60,75,67,58],"key_presses":["arrowright","arrowleft","arrowright","arrowleft","arrowright"],"response_times":[397,328,388,468,256],"outcomes":[87,68,75,43,58],"screen_resolution":1,"trial_type":"horizons-trial","trial_index":217,"time_elapsed":1045631,"internal_node_id":"0.0-213.0"},{"horizon":5,"rewards_L":[20,14,0,12,27],"rewards_R":[49,30,52,46,40],"key_presses":["arrowright","arrowleft","arrowleft","arrowright","arrowright"],"response_times":[370,298,705,321,1254],"outcomes":[49,14,0,46,40],"screen_resolution":1,"trial_type":"horizons-trial","trial_index":218,"time_elapsed":1049396,"internal_node_id":"0.0-214.0"},{"horizon":5,"rewards_L":[65,75,58,74,75],"rewards_R":[52,52,54,72,48],"key_presses":["arrowright","arrowleft","arrowright","arrowright","arrowleft"],"response_times":[279,324,384,806,263],"outcomes":[52,75,54,72,75],"screen_resolution":1,"trial_type":"horizons-trial","trial_index":219,"time_elapsed":1052018,"internal_node_id":"0.0-215.0"},{"horizon":10,"rewards_L":[35,40,39,49,45,32,27,43,43,36],"rewards_R":[31,36,40,48,40,53,46,44,42,61],"key_presses":["arrowleft","arrowright","arrowright","arrowleft","arrowleft","arrowright","arrowleft","arrowleft","arrowleft","arrowleft"],"response_times":[442,234,360,289,325,503,1024,194,209,208],"outcomes":[35,36,40,49,45,53,27,43,43,36],"screen_resolution":1,"trial_type":"horizons-trial","trial_index":220,"time_elapsed":1056366,"internal_node_id":"0.0-216.0"},{"horizon":5,"rewards_L":[67,61,66,68,61],"rewards_R":[52,43,46,61,49],"key_presses":["arrowleft","arrowright","arrowleft","arrowright","arrowleft"],"response_times":[395,305,378,347,295],"outcomes":[67,43,66,61,61],"screen_resolution":1,"trial_type":"horizons-trial","trial_index":221,"time_elapsed":1058788,"internal_node_id":"0.0-217.0"},{"horizon":5,"rewards_L":[56,43,39,35,42],"rewards_R":[67,78,54,58,62],"key_presses":["arrowright","arrowright","arrowleft","arrowleft","arrowright"],"response_times":[348,364,281,362,354],"outcomes":[67,78,39,35,62],"screen_resolution":1,"trial_type":"horizons-trial","trial_index":222,"time_elapsed":1061382,"internal_node_id":"0.0-218.0"},{"horizon":5,"rewards_L":[49,52,40,37,58],"rewards_R":[47,41,34,40,45],"key_presses":["arrowright","arrowleft","arrowright","arrowright","arrowleft"],"response_times":[278,299,360,546,528],"outcomes":[47,52,34,40,58],"screen_resolution":1,"trial_type":"horizons-trial","trial_index":223,"time_elapsed":1064278,"internal_node_id":"0.0-219.0"},{"horizon":10,"rewards_L":[54,48,62,64,73,46,70,63,58,63],"rewards_R":[74,70,70,74,55,63,78,61,59,54],"key_presses":["arrowright","arrowright","arrowleft","arrowright","arrowright","arrowright","arrowright","arrowright","arrowright","arrowright"],"response_times":[327,372,369,448,303,220,201,251,209,187],"outcomes":[74,70,62,74,55,63,78,61,59,54],"screen_resolution":1,"trial_type":"horizons-trial","trial_index":224,"time_elapsed":1068217,"internal_node_id":"0.0-220.0"},{"horizon":5,"rewards_L":[63,72,63,64,56],"rewards_R":[55,59,65,73,52],"key_presses":["arrowleft","arrowright","arrowleft","arrowright","arrowright"],"response_times":[400,279,404,298,325],"outcomes":[63,59,63,73,52],"screen_resolution":1,"trial_type":"horizons-trial","trial_index":225,"time_elapsed":1070591,"internal_node_id":"0.0-221.0"},{"horizon":10,"rewards_L":[96,88,81,93,89,97,100,97,89,95],"rewards_R":[51,56,78,49,58,48,64,58,51,57],"key_presses":["arrowleft","arrowleft","arrowright","arrowleft","arrowleft","arrowleft","arrowleft","arrowleft","arrowleft","arrowleft"],"response_times":[360,296,303,319,224,225,223,214,202,193],"outcomes":[96,88,78,93,89,97,100,97,89,95],"screen_resolution":1,"trial_type":"horizons-trial","trial_index":226,"time_elapsed":1073792,"internal_node_id":"0.0-222.0"},{"horizon":5,"rewards_L":[43,54,51,74,55],"rewards_R":[79,84,79,72,67],"key_presses":["arrowleft","arrowright","arrowleft","arrowleft","arrowright"],"response_times":[352,244,227,876,179],"outcomes":[43,84,51,74,67],"screen_resolution":1,"trial_type":"horizons-trial","trial_index":227,"time_elapsed":1076419,"internal_node_id":"0.0-223.0"},{"horizon":5,"rewards_L":[48,65,70,64,47],"rewards_R":[66,59,61,63,63],"key_presses":["arrowright","arrowleft","arrowright","arrowleft","arrowleft"],"response_times":[437,285,352,414,1809],"outcomes":[66,65,61,64,47],"screen_resolution":1,"trial_type":"horizons-trial","trial_index":228,"time_elapsed":1080439,"internal_node_id":"0.0-224.0"},{"horizon":10,"rewards_L":[62,59,51,52,56,69,75,59,61,73],"rewards_R":[62,65,58,51,80,65,54,62,53,60],"key_presses":["arrowleft","arrowright","arrowright","arrowleft","arrowleft","arrowright","arrowright","arrowright","arrowright","arrowright"],"response_times":[409,252,370,310,641,1418,1668,229,202,185],"outcomes":[62,65,58,52,56,65,54,62,53,60],"screen_resolution":1,"trial_type":"horizons-trial","trial_index":229,"time_elapsed":1086674,"internal_node_id":"0.0-225.0"},{"horizon":10,"rewards_L":[34,42,57,58,40,43,47,39,56,41],"rewards_R":[59,56,67,56,49,43,52,50,52,53],"key_presses":["arrowright","arrowright","arrowleft","arrowleft","arrowright","arrowright","arrowright","arrowright","arrowright","arrowright"],"response_times":[342,336,276,305,598,201,192,186,187,195],"outcomes":[59,56,57,58,49,43,52,50,52,53],"screen_resolution":1,"trial_type":"horizons-trial","trial_index":230,"time_elapsed":1090117,"internal_node_id":"0.0-226.0"},{"horizon":10,"rewards_L":[45,42,42,37,51,41,39,33,48,43],"rewards_R":[20,25,8,6,22,19,27,15,14,6],"key_presses":["arrowright","arrowleft","arrowleft","arrowright","arrowleft","arrowleft","arrowleft","arrowleft","arrowleft","arrowleft"],"response_times":[334,160,311,452,219,227,340,210,236,224],"outcomes":[20,42,42,6,51,41,39,33,48,43],"screen_resolution":1,"trial_type":"horizons-trial","trial_index":231,"time_elapsed":1093714,"internal_node_id":"0.0-227.0"},{"horizon":5,"rewards_L":[59,65,61,55,60],"rewards_R":[33,48,40,42,34],"key_presses":["arrowleft","arrowleft","arrowleft","arrowright","arrowleft"],"response_times":[327,483,318,277,301],"outcomes":[59,65,61,42,60],"screen_resolution":1,"trial_type":"horizons-trial","trial_index":232,"time_elapsed":1096078,"internal_node_id":"0.0-228.0"},{"horizon":10,"rewards_L":[49,38,55,52,47,40,47,44,52,57],"rewards_R":[58,66,59,38,68,64,66,56,52,55],"key_presses":["arrowright","arrowright","arrowright","arrowleft","arrowleft","arrowright","arrowright","arrowright","arrowright","arrowright"],"response_times":[344,429,460,242,247,667,202,183,178,189],"outcomes":[58,66,59,52,47,64,66,56,52,55],"screen_resolution":1,"trial_type":"horizons-trial","trial_index":233,"time_elapsed":1099869,"internal_node_id":"0.0-229.0"},{"horizon":5,"rewards_L":[45,35,55,50,49],"rewards_R":[51,51,61,78,57],"key_presses":["arrowright","arrowleft","arrowleft","arrowright","arrowleft"],"response_times":[377,311,297,191,402],"outcomes":[51,35,55,78,49],"screen_resolution":1,"trial_type":"horizons-trial","trial_index":234,"time_elapsed":1101956,"internal_node_id":"0.0-230.0"},{"horizon":10,"rewards_L":[50,27,50,37,43,55,38,49,27,55],"rewards_R":[61,72,74,79,75,90,64,73,66,64],"key_presses":["arrowleft","arrowright","arrowright","arrowleft","arrowright","arrowleft","arrowright","arrowleft","arrowright","arrowright"],"response_times":[322,250,236,243,256,322,3,256,12,358],"outcomes":[50,72,74,37,75,55,64,49,66,64],"screen_resolution":1,"trial_type":"horizons-trial","trial_index":235,"time_elapsed":1105294,"internal_node_id":"0.0-231.0"},{"horizon":5,"rewards_L":[61,53,53,61,66],"rewards_R":[99,92,98,87,87],"key_presses":["arrowright","arrowleft","arrowright","arrowleft","arrowright"],"response_times":[439,22,305,278,9],"outcomes":[99,53,98,61,87],"screen_resolution":1,"trial_type":"horizons-trial","trial_index":236,"time_elapsed":1107022,"internal_node_id":"0.0-232.0"},{"horizon":10,"rewards_L":[27,29,47,24,29,34,28,30,29,16],"rewards_R":[45,31,38,40,38,33,42,38,49,30],"key_presses":["arrowright","arrowright","arrowleft","arrowleft","arrowright","arrowright","arrowleft","arrowright","arrowright","arrowright"],"response_times":[31,810,528,594,324,222,392,20,743,306],"outcomes":[45,31,47,24,38,33,28,38,49,30],"screen_resolution":1,"trial_type":"horizons-trial","trial_index":237,"time_elapsed":1111598,"internal_node_id":"0.0-233.0"},{"horizon":5,"rewards_L":[26,48,41,38,30],"rewards_R":[0,8,10,0,15],"key_presses":["arrowleft","arrowright","arrowright","arrowleft","arrowleft"],"response_times":[428,255,549,267,199],"outcomes":[26,8,10,38,30],"screen_resolution":1,"trial_type":"horizons-trial","trial_index":238,"time_elapsed":1113862,"internal_node_id":"0.0-234.0"},{"horizon":5,"rewards_L":[40,39,26,28,31],"rewards_R":[69,69,63,62,67],"key_presses":["arrowleft","arrowright","arrowleft","arrowleft","arrowright"],"response_times":[335,301,610,414,432],"outcomes":[40,69,26,28,67],"screen_resolution":1,"trial_type":"horizons-trial","trial_index":239,"time_elapsed":1116680,"internal_node_id":"0.0-235.0"},{"horizon":10,"rewards_L":[63,63,65,56,59,43,64,50,51,63],"rewards_R":[49,50,54,39,50,58,46,45,41,61],"key_presses":["arrowright","arrowright","arrowleft","arrowleft","arrowleft","arrowleft","arrowleft","arrowleft","arrowleft","arrowleft"],"response_times":[284,397,394,291,462,562,201,240,209,192],"outcomes":[49,50,65,56,59,43,64,50,51,63],"screen_resolution":1,"trial_type":"horizons-trial","trial_index":240,"time_elapsed":1120944,"internal_node_id":"0.0-236.0"},{"horizon":10,"rewards_L":[51,54,64,51,51,67,54,61,60,53],"rewards_R":[44,37,46,42,47,38,17,40,30,35],"key_presses":["arrowleft","arrowright","arrowright","arrowright","arrowleft","arrowleft","arrowleft","arrowleft","arrowleft","arrowleft"],"response_times":[452,278,420,445,648,244,193,191,183,240],"outcomes":[51,37,46,42,51,67,54,61,60,53],"screen_resolution":1,"trial_type":"horizons-trial","trial_index":241,"time_elapsed":1124996,"internal_node_id":"0.0-237.0"},{"horizon":5,"rewards_L":[52,84,69,70,63],"rewards_R":[36,29,50,36,52],"key_presses":["arrowleft","arrowleft","arrowright","arrowleft","arrowleft"],"response_times":[436,260,381,340,185],"outcomes":[52,84,50,70,63],"screen_resolution":1,"trial_type":"horizons-trial","trial_index":242,"time_elapsed":1127245,"internal_node_id":"0.0-238.0"},{"horizon":10,"rewards_L":[84,70,89,71,75,75,92,88,64,74],"rewards_R":[56,36,61,47,61,55,47,75,71,75],"key_presses":["arrowright","arrowleft","arrowright","arrowright","arrowleft","arrowleft","arrowleft","arrowleft","arrowleft","arrowleft"],"response_times":[324,209,377,579,489,219,384,234,416,228],"outcomes":[56,70,61,47,75,75,92,88,64,74],"screen_resolution":1,"trial_type":"horizons-trial","trial_index":243,"time_elapsed":1131298,"internal_node_id":"0.0-239.0"},{"horizon":10,"rewards_L":[32,35,41,51,45,34,41,41,42,39],"rewards_R":[43,45,46,53,37,46,54,40,36,54],"key_presses":["arrowright","arrowright","arrowleft","arrowright","arrowleft","arrowright","arrowright","arrowright","arrowright","arrowright"],"response_times":[353,253,276,445,350,912,218,190,184,195],"outcomes":[43,45,41,53,45,46,54,40,36,54],"screen_resolution":1,"trial_type":"horizons-trial","trial_index":244,"time_elapsed":1135255,"internal_node_id":"0.0-240.0"},{"horizon":5,"rewards_L":[56,45,46,64,64],"rewards_R":[50,34,45,60,28],"key_presses":["arrowleft","arrowleft","arrowright","arrowleft","arrowright"],"response_times":[422,273,288,483,451],"outcomes":[56,45,45,64,28],"screen_resolution":1,"trial_type":"horizons-trial","trial_index":245,"time_elapsed":1137928,"internal_node_id":"0.0-241.0"},{"horizon":5,"rewards_L":[53,47,58,62,71],"rewards_R":[58,58,61,55,48],"key_presses":["arrowleft","arrowright","arrowleft","arrowright","arrowright"],"response_times":[408,286,346,710,1632],"outcomes":[53,58,58,55,48],"screen_resolution":1,"trial_type":"horizons-trial","trial_index":246,"time_elapsed":1141999,"internal_node_id":"0.0-242.0"},{"horizon":5,"rewards_L":[21,49,44,43,41],"rewards_R":[44,62,57,70,64],"key_presses":["arrowright","arrowleft","arrowright","arrowleft","arrowright"],"response_times":[266,287,326,360,858],"outcomes":[44,49,57,43,64],"screen_resolution":1,"trial_t