[{"success":true,"timeout":false,"failed_images":[],"failed_audio":[],"failed_video":[],"trial_type":"preload","trial_index":0,"time_elapsed":233,"internal_node_id":"0.0-0.0"},{"success":true,"trial_type":"fullscreen","trial_index":1,"time_elapsed":2306,"internal_node_id":"0.0-1.0"},{"rt":9508,"stimulus":"<p>你将开始实验 実験を開始します<b>Horizons task.</b></p><p>查看说明请按 “1” 键，跳过说明请按 “2” 键。説明を見るには “1” キーを押してください。スキップするには “2” キーを押してください。</p>","response":"1","trial_type":"html-keyboard-response","trial_index":2,"time_elapsed":11815,"internal_node_id":"0.0-2.0"},{"view_history":[{"page_index":0,"viewing_time":5271},{"page_index":1,"viewing_time":6430},{"page_index":2,"viewing_time":11636},{"page_index":3,"viewing_time":7206},{"page_index":4,"viewing_time":7902},{"page_index":5,"viewing_time":11106},{"page_index":6,"viewing_time":6132},{"page_index":7,"viewing_time":8569},{"page_index":8,"viewing_time":10776},{"page_index":9,"viewing_time":11788}],"rt":86815,"trial_type":"instructions","trial_index":3,"time_elapsed":98630,"internal_node_id":"0.0-3.0-0.0"},{"horizon":5,"rewards_L":[44,57,74,72,62],"rewards_R":[31,33,24,39,29],"key_presses":["arrowright","arrowleft","arrowright","arrowright","arrowleft"],"response_times":[2030,1719,3361,1080,3225],"outcomes":[31,57,24,39,62],"screen_resolution":1,"phase":"practice","trial_type":"horizons-trial","trial_index":4,"time_elapsed":118942,"internal_node_id":"0.0-3.0-1.0"},{"horizon":10,"rewards_L":[64,50,57,35,52,38,44,61,39,38],"rewards_R":[70,69,76,71,75,58,81,84,57,61],"key_presses":["arrowleft","arrowleft","arrowright","arrowright","arrowright","arrowright","arrowright","arrowright","arrowright","arrowright"],"response_times":[929,492,826,581,3218,1388,1444,841,767,789],"outcomes":[64,50,76,71,75,58,81,84,57,61],"screen_resolution":1,"phase":"practice","trial_type":"horizons-trial","trial_index":5,"time_elapsed":131962,"internal_node_id":"0.0-3.0-2.0"},{"view_history":[{"page_index":0,"viewing_time":3154},{"page_index":1,"viewing_time":1844},{"page_index":2,"viewing_time":1381},{"page_index":1,"viewing_time":2040},{"page_index":2,"viewing_time":4356},{"page_index":3,"viewing_time":4153}],"rt":16927,"trial_type":"instructions","trial_index":6,"time_elapsed":148890,"internal_node_id":"0.0-3.0-3.0"},{"responses":["true","false","true"],"num_errors":0,"rt":17388.100000023842,"trial_type":"horizons-comprehension","trial_index":7,"time_elapsed":166279,"internal_node_id":"0.0-3.0-4.0"},{"view_history":[{"page_index":0,"viewing_time":3051},{"page_index":1,"viewing_time":1392}],"rt":4443,"trial_type":"instructions","trial_index":8,"time_elapsed":170723,"internal_node_id":"0.0-4.0"},{"horizon":5,"rewards_L":[62,53,41,54,57],"rewards_R":[44,45,51,40,42],"key_presses":["arrowright","arrowright","arrowleft","arrowleft","arrowleft"],"response_times":[1268,581,1221,809,2754],"outcomes":[44,45,41,54,57],"screen_resolution":1,"trial_type":"horizons-trial","trial_index":9,"time_elapsed":178536,"internal_node_id":"0.0-5.0"},{"horizon":5,"rewards_L":[20,39,38,42,30],"rewards_R":[52,41,43,48,48],"key_presses":["arrowright","arrowleft","arrowleft","arrowright","arrowright"],"response_times":[697,371,428,396,1068],"outcomes":[52,39,38,48,48],"screen_resolution":1,"trial_type":"horizons-trial","trial_index":10,"time_elapsed":182757,"internal_node_id":"0.0-6.0"},{"horizon":5,"rewards_L":[24,26,40,26,23],"rewards_R":[35,45,70,36,43],"key_presses":["arrowleft","arrowright","arrowright","arrowleft","arrowright"],"response_times":[529,385,573,405,802],"outcomes":[24,45,70,26,43],"screen_resolution":1,"trial_type":"horizons-trial","trial_index":11,"time_elapsed":186476,"internal_node_id":"0.0-7.0"},{"horizon":10,"rewards_L":[23,39,46,36,28,44,44,32,38,30],"rewards_R":[39,51,55,37,37,31,32,39,36,49],"key_presses":["arrowright","arrowleft","arrowleft","arrowright","arrowleft","arrowright","arrowright","arrowright","arrowright","arrowleft"],"response_times":[860,287,657,764,424,2637,664,615,611,5103],"outcomes":[39,39,46,37,28,31,32,39,36,30],"screen_resolution":1,"trial_type":"horizons-trial","trial_index":12,"time_elapsed":200433,"internal_node_id":"0.0-8.0"},{"horizon":5,"rewards_L":[22,28,28,29,42],"rewards_R":[39,44,41,39,31],"key_presses":["arrowright","arrowright","arrowright","arrowleft","arrowright"],"response_times":[677,445,388,492,913],"outcomes":[39,44,41,29,31],"screen_resolution":1,"trial_type":"horizons-trial","trial_index":13,"time_elapsed":204077,"internal_node_id":"0.0-9.0"},{"horizon":10,"rewards_L":[63,65,53,63,70,55,79,83,67,71],"rewards_R":[70,53,58,62,69,70,60,67,71,55],"key_presses":["arrowright","arrowleft","arrowright","arrowleft","arrowright","arrowright","arrowright","arrowright","arrowright","arrowright"],"response_times":[579,338,314,332,311,590,3148,594,1407,729],"outcomes":[70,65,58,63,69,70,60,67,71,55],"screen_resolution":1,"trial_type":"horizons-trial","trial_index":14,"time_elapsed":213264,"internal_node_id":"0.0-10.0"},{"horizon":10,"rewards_L":[56,60,54,54,42,53,43,51,46,36],"rewards_R":[54,40,44,28,28,48,32,39,42,39],"key_presses":["arrowright","arrowleft","arrowright","arrowright","arrowright","arrowright","arrowright","arrowright","arrowright","arrowleft"],"response_times":[497,284,293,580,500,367,297,605,425,2893],"outcomes":[54,60,44,28,28,48,32,39,42,36],"screen_resolution":1,"trial_type":"horizons-trial","trial_index":15,"time_elapsed":220790,"internal_node_id":"0.0-11.0"},{"horizon":10,"rewards_L":[49,59,36,68,53,63,62,44,61,45],"rewards_R":[48,50,34,34,40,44,26,36,36,35],"key_presses":["arrowleft","arrowleft","arrowleft","arrowright","arrowleft","arrowleft","arrowright","arrowright","arrowleft","arrowleft"],"response_times":[626,335,185,622,236,414,482,498,1256,642],"outcomes":[49,59,36,34,53,63,26,36,61,45],"screen_resolution":1,"trial_type":"horizons-trial","trial_index":16,"time_elapsed":226844,"internal_node_id":"0.0-12.0"},{"horizon":10,"rewards_L":[49,28,40,37,55,60,39,44,34,37],"rewards_R":[39,42,48,34,41,42,40,51,54,41],"key_presses":["arrowright","arrowleft","arrowright","arrowright","arrowright","arrowright","arrowright","arrowright","arrowright","arrowright"],"response_times":[540,296,341,564,203,177,242,205,895,332],"outcomes":[39,28,48,34,41,42,40,51,54,41],"screen_resolution":1,"trial_type":"horizons-trial","trial_index":17,"time_elapsed":231295,"internal_node_id":"0.0-13.0"},{"horizon":10,"rewards_L":[62,53,78,77,57,81,61,65,65,75],"rewards_R":[38,38,45,48,35,36,46,58,46,35],"key_presses":["arrowleft","arrowleft","arrowright","arrowright","arrowleft","arrowleft","arrowright","arrowleft","arrowleft","arrowleft"],"response_times":[1121,367,502,396,1599,481,1264,474,509,379],"outcomes":[62,53,45,48,57,81,46,65,65,75],"screen_resolution":1,"trial_type":"horizons-trial","trial_index":18,"time_elapsed":238956,"internal_node_id":"0.0-14.0"},{"horizon":5,"rewards_L":[63,64,84,70,59],"rewards_R":[43,55,37,51,43],"key_presses":["arrowright","arrowleft","arrowleft","arrowright","arrowleft"],"response_times":[673,339,572,302,754],"outcomes":[43,64,84,51,59],"screen_resolution":1,"trial_type":"horizons-trial","trial_index":19,"time_elapsed":242152,"internal_node_id":"0.0-15.0"},{"horizon":10,"rewards_L":[38,42,41,27,35,36,38,38,40,46],"rewards_R":[38,47,40,62,56,47,50,39,45,44],"key_presses":["arrowleft","arrowright","arrowleft","arrowleft","arrowleft","arrowleft","arrowright","arrowright","arrowright","arrowright"],"response_times":[616,329,334,410,411,276,985,273,3767,900],"outcomes":[38,47,41,27,35,36,50,39,45,44],"screen_resolution":1,"trial_type":"horizons-trial","trial_index":20,"time_elapsed":251153,"internal_node_id":"0.0-16.0"},{"horizon":10,"rewards_L":[35,48,42,50,35,26,37,28,13,33],"rewards_R":[35,51,51,49,52,34,44,31,49,53],"key_presses":["arrowleft","arrowright","arrowright","arrowleft","arrowright","arrowright","arrowleft","arrowright","arrowleft","arrowright"],"response_times":[932,363,816,477,829,626,337,476,464,578],"outcomes":[35,51,51,50,52,34,37,31,13,53],"screen_resolution":1,"trial_type":"horizons-trial","trial_index":21,"time_elapsed":257625,"internal_node_id":"0.0-17.0"},{"horizon":10,"rewards_L":[53,37,41,45,28,35,16,38,46,25],"rewards_R":[50,63,47,62,59,55,62,54,62,56],"key_presses":["arrowright","arrowleft","arrowleft","arrowleft","arrowright","arrowleft","arrowright","arrowright","arrowright","arrowright"],"response_times":[529,294,605,359,339,666,303,616,341,284],"outcomes":[50,37,41,45,59,35,62,54,62,56],"screen_resolution":1,"trial_type":"horizons-trial","trial_index":22,"time_elapsed":263066,"internal_node_id":"0.0-18.0"},{"horizon":10,"rewards_L":[58,21,36,25,36,32,36,46,49,31],"rewards_R":[40,46,51,47,34,34,57,54,36,54],"key_presses":["arrowleft","arrowright","arrowleft","arrowright","arrowleft","arrowleft","arrowright","arrowleft","arrowright","arrowright"],"response_times":[446,311,401,325,311,443,326,391,343,2915],"outcomes":[58,46,36,47,36,32,57,46,36,54],"screen_resolution":1,"trial_type":"horizons-trial","trial_index":23,"time_elapsed":269991,"internal_node_id":"0.0-19.0"},{"horizon":10,"rewards_L":[56,53,60,65,55,67,59,74,41,49],"rewards_R":[67,63,72,51,54,75,67,57,63,60],"key_presses":["arrowright","arrowright","arrowright","arrowleft","arrowleft","arrowleft","arrowright","arrowleft","arrowleft","arrowright"],"response_times":[832,543,205,699,395,468,301,390,1624,3553],"outcomes":[67,63,72,65,55,67,67,74,41,60],"screen_resolution":1,"trial_type":"horizons-trial","trial_index":24,"time_elapsed":279615,"internal_node_id":"0.0-20.0"},{"horizon":10,"rewards_L":[42,64,65,49,41,45,49,49,44,49],"rewards_R":[37,51,30,45,36,34,44,43,39,32],"key_presses":["arrowleft","arrowleft","arrowright","arrowright","arrowleft","arrowright","arrowleft","arrowright","arrowleft","arrowleft"],"response_times":[633,369,382,658,2074,1372,413,402,795,2987],"outcomes":[42,64,30,45,41,34,49,43,44,49],"screen_resolution":1,"trial_type":"horizons-trial","trial_index":25,"time_elapsed":290331,"internal_node_id":"0.0-21.0"},{"horizon":10,"rewards_L":[63,73,62,54,65,62,70,60,66,75],"rewards_R":[33,37,25,18,27,42,28,20,41,40],"key_presses":["arrowleft","arrowleft","arrowleft","arrowright","arrowleft","arrowright","arrowleft","arrowleft","arrowleft","arrowleft"],"response_times":[573,399,402,378,381,413,438,415,271,373],"outcomes":[63,73,62,18,65,42,70,60,66,75],"screen_resolution":1,"trial_type":"horizons-trial","trial_index":26,"time_elapsed":294887,"internal_node_id":"0.0-22.0"},{"horizon":10,"rewards_L":[46,40,36,42,35,30,39,48,53,58],"rewards_R":[38,49,41,44,46,46,51,47,28,22],"key_presses":["arrowright","arrowleft","arrowright","arrowleft","arrowright","arrowleft","arrowright","arrowleft","arrowright","arrowright"],"response_times":[952,253,280,277,283,300,258,314,252,5169],"outcomes":[38,40,41,42,46,30,51,48,28,22],"screen_resolution":1,"trial_type":"horizons-trial","trial_index":27,"time_elapsed":303871,"internal_node_id":"0.0-23.0"},{"horizon":5,"rewards_L":[27,40,39,33,48],"rewards_R":[55,52,64,53,69],"key_presses":["arrowright","arrowright","arrowright","arrowleft","arrowright"],"response_times":[720,864,642,402,707],"outcomes":[55,52,64,33,69],"screen_resolution":1,"trial_type":"horizons-trial","trial_index":28,"time_elapsed":307771,"internal_node_id":"0.0-24.0"},{"horizon":10,"rewards_L":[55,64,52,56,56,68,47,60,61,67],"rewards_R":[74,66,74,76,67,73,73,77,73,72],"key_presses":["arrowright","arrowright","arrowleft","arrowright","arrowleft","arrowright","arrowleft","arrowright","arrowleft","arrowright"],"response_times":[496,606,499,269,304,293,319,320,268,384],"outcomes":[74,66,52,76,56,73,47,77,61,72],"screen_resolution":1,"trial_type":"horizons-trial","trial_index":29,"time_elapsed":312202,"internal_node_id":"0.0-25.0"},{"horizon":5,"rewards_L":[21,22,13,26,15],"rewards_R":[46,42,32,29,46],"key_presses":["arrowright","arrowright","arrowright","arrowleft","arrowright"],"response_times":[856,435,834,905,718],"outcomes":[46,42,32,26,46],"screen_resolution":1,"trial_type":"horizons-trial","trial_index":30,"time_elapsed":316514,"internal_node_id":"0.0-26.0"},{"horizon":10,"rewards_L":[51,57,43,50,39,53,51,56,36,46],"rewards_R":[43,39,36,37,32,34,53,37,42,58],"key_presses":["arrowleft","arrowleft","arrowright","arrowleft","arrowleft","arrowright","arrowright","arrowleft","arrowright","arrowleft"],"response_times":[836,571,657,326,1602,562,395,578,411,733],"outcomes":[51,57,36,50,39,34,53,56,42,46],"screen_resolution":1,"trial_type":"horizons-trial","trial_index":31,"time_elapsed":324044,"internal_node_id":"0.0-27.0"},{"horizon":5,"rewards_L":[50,46,44,44,25],"rewards_R":[50,53,56,58,72],"key_presses":["arrowright","arrowright","arrowleft","arrowleft","arrowright"],"response_times":[541,473,312,829,740],"outcomes":[50,53,44,44,72],"screen_resolution":1,"trial_type":"horizons-trial","trial_index":32,"time_elapsed":327483,"internal_node_id":"0.0-28.0"},{"horizon":5,"rewards_L":[36,33,48,55,46],"rewards_R":[15,2,15,6,23],"key_presses":["arrowright","arrowleft","arrowleft","arrowright","arrowleft"],"response_times":[627,347,686,385,991],"outcomes":[15,33,48,6,46],"screen_resolution":1,"trial_type":"horizons-trial","trial_index":33,"time_elapsed":331047,"internal_node_id":"0.0-29.0"},{"horizon":10,"rewards_L":[11,24,31,25,13,19,22,43,7,26],"rewards_R":[41,40,59,33,40,38,59,34,32,52],"key_presses":["arrowleft","arrowright","arrowright","arrowleft","arrowright","arrowleft","arrowleft","arrowright","arrowright","arrowright"],"response_times":[777,468,644,462,544,500,469,284,350,394],"outcomes":[11,40,59,25,40,19,22,34,32,52],"screen_resolution":1,"trial_type":"horizons-trial","trial_index":34,"time_elapsed":336490,"internal_node_id":"0.0-30.0"},{"horizon":10,"rewards_L":[39,18,24,33,38,17,24,46,39,43],"rewards_R":[35,44,43,49,27,46,44,45,36,40],"key_presses":["arrowright","arrowright","arrowright","arrowleft","arrowright","arrowleft","arrowright","arrowleft","arrowright","arrowright"],"response_times":[479,583,616,308,390,322,329,260,423,3721],"outcomes":[35,44,43,33,27,17,44,46,36,40],"screen_resolution":1,"trial_type":"horizons-trial","trial_index":35,"time_elapsed":344618,"internal_node_id":"0.0-31.0"},{"horizon":5,"rewards_L":[64,63,55,43,54],"rewards_R":[49,56,55,62,67],"key_presses":["arrowright","arrowright","arrowleft","arrowleft","arrowright"],"response_times":[670,428,454,758,2809],"outcomes":[49,56,55,43,67],"screen_resolution":1,"trial_type":"horizons-trial","trial_index":36,"time_elapsed":350294,"internal_node_id":"0.0-32.0"},{"horizon":10,"rewards_L":[30,36,39,39,36,43,50,36,34,33],"rewards_R":[46,36,48,31,29,39,27,43,29,32],"key_presses":["arrowleft","arrowright","arrowright","arrowleft","arrowright","arrowleft","arrowleft","arrowright","arrowleft","arrowleft"],"response_times":[889,336,613,545,291,512,715,320,549,4859],"outcomes":[30,36,48,39,29,43,50,43,34,33],"screen_resolution":1,"trial_type":"horizons-trial","trial_index":37,"time_elapsed":361708,"internal_node_id":"0.0-33.0"},{"horizon":5,"rewards_L":[43,42,38,31,39],"rewards_R":[12,28,20,18,9],"key_presses":["arrowleft","arrowright","arrowleft","arrowright","arrowleft"],"response_times":[486,391,328,383,1545],"outcomes":[43,28,38,18,39],"screen_resolution":1,"trial_type":"horizons-trial","trial_index":38,"time_elapsed":365405,"internal_node_id":"0.0-34.0"},{"horizon":5,"rewards_L":[37,37,48,44,61],"rewards_R":[31,35,28,34,36],"key_presses":["arrowright","arrowleft","arrowleft","arrowright","arrowleft"],"response_times":[938,449,442,832,1388],"outcomes":[31,37,48,34,61],"screen_resolution":1,"trial_type":"horizons-trial","trial_index":39,"time_elapsed":370057,"internal_node_id":"0.0-35.0"},{"horizon":10,"rewards_L":[45,55,47,43,38,36,28,38,44,34],"rewards_R":[66,64,60,38,74,76,60,66,48,57],"key_presses":["arrowright","arrowright","arrowright","arrowleft","arrowleft","arrowright","arrowright","arrowright","arrowright","arrowright"],"response_times":[883,428,372,427,421,587,609,282,278,251],"outcomes":[66,64,60,43,38,76,60,66,48,57],"screen_resolution":1,"trial_type":"horizons-trial","trial_index":40,"time_elapsed":375272,"internal_node_id":"0.0-36.0"},{"horizon":10,"rewards_L":[27,39,43,32,20,43,32,44,35,32],"rewards_R":[10,9,9,12,0,4,1,2,17,9],"key_presses":["arrowright","arrowleft","arrowright","arrowleft","arrowright","arrowleft","arrowleft","arrowleft","arrowleft","arrowleft"],"response_times":[735,349,284,256,301,318,208,174,165,670],"outcomes":[10,39,9,32,0,43,32,44,35,32],"screen_resolution":1,"trial_type":"horizons-trial","trial_index":41,"time_elapsed":379488,"internal_node_id":"0.0-37.0"},{"horizon":10,"rewards_L":[40,34,45,43,49,53,38,50,32,42],"rewards_R":[28,36,33,42,24,36,43,9,23,30],"key_presses":["arrowright","arrowleft","arrowright","arrowleft","arrowright","arrowleft","arrowright","arrowleft","arrowleft","arrowleft"],"response_times":[427,296,372,262,290,345,534,268,480,341],"outcomes":[28,34,33,43,24,53,43,50,32,42],"screen_resolution":1,"trial_type":"horizons-trial","trial_index":42,"time_elapsed":383679,"internal_node_id":"0.0-38.0"},{"horizon":10,"rewards_L":[39,46,41,36,35,37,41,30,49,39],"rewards_R":[51,44,40,32,37,37,44,53,34,51],"key_presses":["arrowright","arrowleft","arrowleft","arrowleft","arrowright","arrowleft","arrowright","arrowleft","arrowright","arrowright"],"response_times":[408,284,632,456,393,990,508,559,312,6564],"outcomes":[51,46,41,36,37,37,44,30,34,51],"screen_resolution":1,"trial_type":"horizons-trial","trial_index":43,"time_elapsed":395583,"internal_node_id":"0.0-39.0"},{"horizon":10,"rewards_L":[37,33,44,41,58,49,39,45,50,34],"rewards_R":[25,34,37,40,38,40,36,49,34,36],"key_presses":["arrowleft","arrowright","arrowright","arrowright","arrowleft","arrowright","arrowright","arrowleft","arrowright","arrowleft"],"response_times":[395,313,691,670,328,355,1208,252,451,879],"outcomes":[37,34,37,40,58,40,36,45,34,34],"screen_resolution":1,"trial_type":"horizons-trial","trial_index":44,"time_elapsed":401826,"internal_node_id":"0.0-40.0"},{"horizon":5,"rewards_L":[79,80,86,90,87],"rewards_R":[52,75,55,61,59],"key_presses":["arrowleft","arrowright","arrowleft","arrowright","arrowleft"],"response_times":[775,314,329,346,597],"outcomes":[79,75,86,61,87],"screen_resolution":1,"trial_type":"horizons-trial","trial_index":45,"time_elapsed":404699,"internal_node_id":"0.0-41.0"},{"horizon":10,"rewards_L":[46,45,40,44,44,33,38,34,51,34],"rewards_R":[48,56,52,58,61,49,59,59,42,49],"key_presses":["arrowright","arrowleft","arrowright","arrowleft","arrowright","arrowleft","arrowleft","arrowright","arrowright","arrowright"],"response_times":[567,301,305,292,246,342,471,531,423,752],"outcomes":[48,45,52,44,61,33,38,59,42,49],"screen_resolution":1,"trial_type":"horizons-trial","trial_index":46,"time_elapsed":409449,"internal_node_id":"0.0-42.0"},{"horizon":10,"rewards_L":[70,85,84,83,69,79,91,77,83,93],"rewards_R":[54,73,61,58,63,60,66,57,56,66],"key_presses":["arrowleft","arrowright","arrowright","arrowleft","arrowright","arrowleft","arrowleft","arrowleft","arrowleft","arrowleft"],"response_times":[369,390,683,488,1829,397,518,449,376,239],"outcomes":[70,73,61,83,63,79,91,77,83,93],"screen_resolution":1,"trial_type":"horizons-trial","trial_index":47,"time_elapsed":415732,"internal_node_id":"0.0-43.0"},{"horizon":5,"rewards_L":[57,60,61,80,48],"rewards_R":[57,65,57,75,60],"key_presses":["arrowleft","arrowright","arrowright","arrowleft","arrowleft"],"response_times":[683,371,697,337,1537],"outcomes":[57,65,57,80,48],"screen_resolution":1,"trial_type":"horizons-trial","trial_index":48,"time_elapsed":419866,"internal_node_id":"0.0-44.0"},{"horizon":5,"rewards_L":[40,34,32,41,45],"rewards_R":[35,40,40,43,36],"key_presses":["arrowleft","arrowleft","arrowright","arrowleft","arrowright"],"response_times":[606,604,414,366,6640],"outcomes":[40,34,40,41,36],"screen_resolution":1,"trial_type":"horizons-trial","trial_index":49,"time_elapsed":429443,"internal_node_id":"0.0-45.0"},{"horizon":5,"rewards_L":[56,55,52,35,47],"rewards_R":[27,36,24,36,48],"key_presses":["arrowright","arrowleft","arrowright","arrowleft","arrowleft"],"response_times":[1179,374,352,507,1466],"outcomes":[27,55,24,35,47],"screen_resolution":1,"trial_type":"horizons-trial","trial_index":50,"time_elapsed":434717,"internal_node_id":"0.0-46.0"},{"horizon":10,"rewards_L":[66,54,63,64,61,51,65,50,63,63],"rewards_R":[79,69,74,86,71,86,67,72,77,73],"key_presses":["arrowright","arrowright","arrowleft","arrowright","arrowleft","arrowright","arrowright","arrowright","arrowright","arrowright"],"response_times":[540,453,356,404,353,440,250,217,305,202],"outcomes":[79,69,63,86,61,86,67,72,77,73],"screen_resolution":1,"trial_type":"horizons-trial","trial_index":51,"time_elapsed":438870,"internal_node_id":"0.0-47.0"},{"horizon":5,"rewards_L":[29,35,28,52,30],"rewards_R":[70,64,62,52,73],"key_presses":["arrowright","arrowleft","arrowleft","arrowleft","arrowright"],"response_times":[383,336,863,489,426],"outcomes":[70,35,28,52,73],"screen_resolution":1,"trial_type":"horizons-trial","trial_index":52,"time_elapsed":441904,"internal_node_id":"0.0-48.0"},{"horizon":10,"rewards_L":[34,40,33,19,24,30,27,28,32,35],"rewards_R":[43,44,36,38,52,53,45,39,31,26],"key_presses":["arrowright","arrowleft","arrowright","arrowleft","arrowright","arrowleft","arrowright","arrowleft","arrowright","arrowright"],"response_times":[886,334,305,288,247,285,267,260,284,1528],"outcomes":[43,40,36,19,52,30,45,28,31,26],"screen_resolution":1,"trial_type":"horizons-trial","trial_index":53,"time_elapsed":447261,"internal_node_id":"0.0-49.0"},{"horizon":10,"rewards_L":[42,34,40,44,55,49,54,31,56,55],"rewards_R":[36,52,42,43,42,51,32,36,41,30],"key_presses":["arrowleft","arrowright","arrowleft","arrowright","arrowleft","arrowright","arrowleft","arrowleft","arrowright","arrowright"],"response_times":[668,242,284,271,237,288,254,1498,1470,6018],"outcomes":[42,52,40,43,55,51,54,31,41,30],"screen_resolution":1,"trial_type":"horizons-trial","trial_index":54,"time_elapsed":460417,"internal_node_id":"0.0-50.0"},{"horizon":10,"rewards_L":[35,50,48,46,48,53,54,33,50,45],"rewards_R":[44,44,47,49,55,40,34,32,29,42],"key_presses":["arrowright","arrowright","arrowleft","arrowleft","arrowright","arrowleft","arrowright","arrowleft","arrowleft","arrowright"],"response_times":[511,433,359,645,271,352,336,368,3341,4191],"outcomes":[44,44,48,46,55,53,34,33,50,42],"screen_resolution":1,"trial_type":"horizons-trial","trial_index":55,"time_elapsed":472694,"internal_node_id":"0.0-51.0"},{"horizon":5,"rewards_L":[82,90,83,76,91],"rewards_R":[68,56,52,68,65],"key_presses":["arrowright","arrowleft","arrowleft","arrowright","arrowleft"],"response_times":[753,326,415,1011,472],"outcomes":[68,90,83,68,91],"screen_resolution":1,"trial_type":"horizons-trial","trial_index":56,"time_elapsed":476805,"internal_node_id":"0.0-52.0"},{"horizon":5,"rewards_L":[71,68,63,45,48],"rewards_R":[59,45,72,69,55],"key_presses":["arrowright","arrowright","arrowleft","arrowleft","arrowleft"],"response_times":[555,445,590,2365,2405],"outcomes":[59,45,63,45,48],"screen_resolution":1,"trial_type":"horizons-trial","trial_index":57,"time_elapsed":484739,"internal_node_id":"0.0-53.0"},{"horizon":5,"rewards_L":[49,46,32,36,29],"rewards_R":[75,71,59,84,60],"key_presses":["arrowleft","arrowright","arrowleft","arrowright","arrowright"],"response_times":[568,386,353,410,699],"outcomes":[49,71,32,84,60],"screen_resolution":1,"trial_type":"horizons-trial","trial_index":58,"time_elapsed":488162,"internal_node_id":"0.0-54.0"},{"horizon":5,"rewards_L":[59,67,67,60,50],"rewards_R":[36,61,39,30,45],"key_presses":["arrowleft","arrowright","arrowright","arrowright","arrowleft"],"response_times":[757,570,505,682,1952],"outcomes":[59,61,39,30,50],"screen_resolution":1,"trial_type":"horizons-trial","trial_index":59,"time_elapsed":494884,"internal_node_id":"0.0-55.0"},{"horizon":10,"rewards_L":[75,67,63,55,51,62,41,55,52,57],"rewards_R":[37,38,48,26,37,12,54,46,31,26],"key_presses":["arrowleft","arrowright","arrowleft","arrowright","arrowleft","arrowright","arrowright","arrowleft","arrowright","arrowleft"],"response_times":[640,357,319,258,388,540,446,455,1219,754],"outcomes":[75,38,63,26,51,12,54,55,31,57],"screen_resolution":1,"trial_type":"horizons-trial","trial_index":60,"time_elapsed":502472,"internal_node_id":"0.0-56.0"},{"horizon":10,"rewards_L":[22,7,18,20,20,23,17,18,16,14],"rewards_R":[29,47,37,34,57,37,20,28,23,48],"key_presses":["arrowright","arrowleft","arrowleft","arrowleft","arrowright","arrowleft","arrowright","arrowleft","arrowright","arrowright"],"response_times":[536,358,462,748,365,388,367,334,430,1715],"outcomes":[29,7,18,20,57,23,20,18,23,48],"screen_resolution":1,"trial_type":"horizons-trial","trial_index":61,"time_elapsed":510509,"internal_node_id":"0.0-57.0"},{"horizon":5,"rewards_L":[63,55,55,51,54],"rewards_R":[51,45,39,43,54],"key_presses":["arrowleft","arrowright","arrowright","arrowright","arrowleft"],"response_times":[942,328,620,440,1500],"outcomes":[63,45,39,43,54],"screen_resolution":1,"trial_type":"horizons-trial","trial_index":62,"time_elapsed":516033,"internal_node_id":"0.0-58.0"},{"horizon":10,"rewards_L":[29,30,22,31,32,39,29,32,33,29],"rewards_R":[49,38,25,41,36,38,41,46,36,43],"key_presses":["arrowleft","arrowright","arrowleft","arrowright","arrowleft","arrowright","arrowleft","arrowleft","arrowright","arrowright"],"response_times":[472,331,277,240,347,680,332,1028,552,1516],"outcomes":[29,38,22,41,32,38,29,32,36,43],"screen_resolution":1,"trial_type":"horizons-trial","trial_index":63,"time_elapsed":523104,"internal_node_id":"0.0-59.0"},{"horizon":10,"rewards_L":[63,73,71,75,56,58,69,74,61,53],"rewards_R":[52,56,57,51,60,66,59,54,65,61],"key_presses":["arrowright","arrowleft","arrowright","arrowright","arrowright","arrowleft","arrowright","arrowleft","arrowright","arrowleft"],"response_times":[636,384,336,677,615,537,407,698,410,764],"outcomes":[52,73,57,51,60,58,59,74,65,53],"screen_resolution":1,"trial_type":"horizons-trial","trial_index":64,"time_elapsed":530372,"internal_node_id":"0.0-60.0"},{"horizon":10,"rewards_L":[49,29,40,24,48,49,43,48,30,45],"rewards_R":[24,21,49,29,38,32,38,27,23,15],"key_presses":["arrowleft","arrowleft","arrowright","arrowright","arrowleft","arrowright","arrowleft","arrowright","arrowleft","arrowleft"],"response_times":[704,615,416,704,324,428,396,388,816,2861],"outcomes":[49,29,49,29,48,32,43,27,30,45],"screen_resolution":1,"trial_type":"horizons-trial","trial_index":65,"time_elapsed":539112,"internal_node_id":"0.0-61.0"},{"horizon":5,"rewards_L":[54,37,49,54,48],"rewards_R":[65,72,50,50,60],"key_presses":["arrowright","arrowright","arrowright","arrowleft","arrowright"],"response_times":[699,480,608,436,2916],"outcomes":[65,72,50,54,60],"screen_resolution":1,"trial_type":"horizons-trial","trial_index":66,"time_elapsed":544980,"internal_node_id":"0.0-62.0"},{"horizon":10,"rewards_L":[36,32,37,28,20,30,10,30,31,10],"rewards_R":[50,45,47,24,45,47,37,49,34,37],"key_presses":["arrowright","arrowleft","arrowleft","arrowleft","arrowright","arrowleft","arrowright","arrowleft","arrowright","arrowright"],"response_times":[871,304,640,580,409,422,318,340,644,1987],"outcomes":[50,32,37,28,45,30,37,30,34,37],"screen_resolution":1,"trial_type":"horizons-trial","trial_index":67,"time_elapsed":552768,"internal_node_id":"0.0-63.0"},{"horizon":10,"rewards_L":[35,23,28,25,21,35,20,12,24,31],"rewards_R":[37,30,17,53,45,38,47,39,36,19],"key_presses":["arrowleft","arrowleft","arrowright","arrowright","arrowright","arrowleft","arrowright","arrowleft","arrowright","arrowright"],"response_times":[687,432,320,776,522,424,439,399,682,1493],"outcomes":[35,23,17,53,45,35,47,12,36,19],"screen_resolution":1,"trial_type":"horizons-trial","trial_index":68,"time_elapsed":560268,"internal_node_id":"0.0-64.0"},{"horizon":5,"rewards_L":[23,20,23,21,34],"rewards_R":[32,47,47,45,43],"key_presses":["arrowright","arrowleft","arrowright","arrowleft","arrowright"],"response_times":[861,635,446,447,1605],"outcomes":[32,20,47,21,43],"screen_resolution":1,"trial_type":"horizons-trial","trial_index":69,"time_elapsed":567472,"internal_node_id":"0.0-65.0"},{"horizon":5,"rewards_L":[57,67,54,69,57],"rewards_R":[63,60,52,50,60],"key_presses":["arrowleft","arrowleft","arrowright","arrowleft","arrowleft"],"response_times":[770,439,499,427,921],"outcomes":[57,67,52,69,57],"screen_resolution":1,"trial_type":"horizons-trial","trial_index":70,"time_elapsed":572781,"internal_node_id":"0.0-66.0"},{"horizon":5,"rewards_L":[50,41,41,59,57],"rewards_R":[50,50,29,46,37],"key_presses":["arrowleft","arrowright","arrowleft","arrowright","arrowright"],"response_times":[850,509,483,696,2073],"outcomes":[50,50,41,46,37],"screen_resolution":1,"trial_type":"horizons-trial","trial_index":71,"time_elapsed":578785,"internal_node_id":"0.0-67.0"},{"horizon":10,"rewards_L":[59,59,56,61,59,59,65,48,48,42],"rewards_R":[41,41,51,48,45,49,31,41,41,46],"key_presses":["arrowleft","arrowleft","arrowright","arrowleft","arrowright","arrowleft","arrowleft","arrowright","arrowleft","arrowleft"],"response_times":[758,531,874,337,344,534,449,377,951,436],"outcomes":[59,59,51,61,45,59,65,41,48,42],"screen_resolution":1,"trial_type":"horizons-trial","trial_index":72,"time_elapsed":586229,"internal_node_id":"0.0-68.0"},{"horizon":10,"rewards_L":[42,45,28,19,20,33,39,16,42,16],"rewards_R":[41,40,43,39,37,51,36,36,39,36],"key_presses":["arrowright","arrowright","arrowright","arrowleft","arrowright","arrowleft","arrowright","arrowleft","arrowright","arrowright"],"response_times":[812,636,718,376,434,395,381,348,1084,436],"outcomes":[41,40,43,19,37,33,36,16,39,36],"screen_resolution":1,"trial_type":"horizons-trial","trial_index":73,"time_elapsed":592918,"internal_node_id":"0.0-69.0"},{"horizon":10,"rewards_L":[67,65,57,73,60,57,62,58,48,63],"rewards_R":[61,51,49,48,47,47,54,58,53,49],"key_presses":["arrowleft","arrowright","arrowright","arrowright","arrowleft","arrowright","arrowleft","arrowright","arrowleft","arrowleft"],"response_times":[895,299,819,338,583,418,385,372,380,392],"outcomes":[67,51,49,48,60,47,62,58,48,63],"screen_resolution":1,"trial_type":"horizons-trial","trial_index":74,"time_elapsed":598482,"internal_node_id":"0.0-70.0"},{"horizon":10,"rewards_L":[65,70,66,58,74,67,71,57,55,60],"rewards_R":[58,61,51,63,60,50,38,65,68,65],"key_presses":["arrowleft","arrowleft","arrowleft","arrowright","arrowright","arrowright","arrowleft","arrowright","arrowleft","arrowleft"],"response_times":[738,365,893,1246,334,462,723,387,371,465],"outcomes":[65,70,66,63,60,50,71,65,55,60],"screen_resolution":1,"trial_type":"horizons-trial","trial_index":75,"time_elapsed":605580,"internal_node_id":"0.0-71.0"},{"horizon":10,"rewards_L":[68,57,70,69,43,46,62,67,70,50],"rewards_R":[41,55,66,52,59,55,52,54,56,47],"key_presses":["arrowleft","arrowright","arrowleft","arrowright","arrowleft","arrowright","arrowleft","arrowright","arrowleft","arrowleft"],"response_times":[540,347,328,337,315,293,283,300,385,409],"outcomes":[68,55,70,52,43,55,62,54,70,50],"screen_resolution":1,"trial_type":"horizons-trial","trial_index":76,"time_elapsed":610024,"internal_node_id":"0.0-72.0"},{"horizon":10,"rewards_L":[45,49,49,38,41,51,40,41,54,51],"rewards_R":[66,56,53,62,64,47,62,58,70,59],"key_presses":["arrowright","arrowleft","arrowleft","arrowleft","arrowright","arrowleft","arrowright","arrowright","arrowright","arrowright"],"response_times":[768,356,351,416,419,429,454,538,345,349],"outcomes":[66,49,49,38,64,51,62,58,70,59],"screen_resolution":1,"trial_type":"horizons-trial","trial_index":77,"time_elapsed":615383,"internal_node_id":"0.0-73.0"},{"horizon":5,"rewards_L":[21,32,54,25,32],"rewards_R":[59,60,81,59,60],"key_presses":["arrowright","arrowright","arrowright","arrowleft","arrowright"],"response_times":[765,585,453,593,484],"outcomes":[59,60,81,25,60],"screen_resolution":1,"trial_type":"horizons-trial","trial_index":78,"time_elapsed":619199,"internal_node_id":"0.0-74.0"},{"horizon":5,"rewards_L":[23,24,38,20,26],"rewards_R":[67,43,61,52,50],"key_presses":["arrowleft","arrowright","arrowleft","arrowright","arrowright"],"response_times":[741,475,357,404,891],"outcomes":[23,43,38,52,50],"screen_resolution":1,"trial_type":"horizons-trial","trial_index":79,"time_elapsed":622748,"internal_node_id":"0.0-75.0"},{"horizon":5,"rewards_L":[51,56,61,63,62],"rewards_R":[41,48,56,42,44],"key_presses":["arrowleft","arrowright","arrowright","arrowleft","arrowleft"],"response_times":[744,365,477,523,1846],"outcomes":[51,48,56,63,62],"screen_resolution":1,"trial_type":"horizons-trial","trial_index":80,"time_elapsed":627334,"internal_node_id":"0.0-76.0"},{"horizon":5,"rewards_L":[52,52,65,66,51],"rewards_R":[84,70,60,74,82],"key_presses":["arrowleft","arrowright","arrowleft","arrowright","arrowright"],"response_times":[430,361,290,309,480],"outcomes":[52,70,65,74,82],"screen_resolution":1,"trial_type":"horizons-trial","trial_index":81,"time_elapsed":629712,"internal_node_id":"0.0-77.0"},{"horizon":5,"rewards_L":[37,30,36,47,43],"rewards_R":[37,38,35,34,25],"key_presses":["arrowleft","arrowright","arrowright","arrowright","arrowright"],"response_times":[701,400,657,485,3230],"outcomes":[37,38,35,34,25],"screen_resolution":1,"trial_type":"horizons-trial","trial_index":82,"time_elapsed":635752,"internal_node_id":"0.0-78.0"},{"horizon":10,"rewards_L":[46,47,42,50,47,39,37,48,39,45],"rewards_R":[40,57,34,39,32,28,36,28,26,33],"key_presses":["arrowleft","arrowleft","arrowleft","arrowright","arrowright","arrowright","arrowleft","arrowright","arrowleft","arrowleft"],"response_times":[512,385,294,405,211,374,366,376,316,345],"outcomes":[46,47,42,39,32,28,37,28,39,45],"screen_resolution":1,"trial_type":"horizons-trial","trial_index":83,"time_elapsed":640361,"internal_node_id":"0.0-79.0"},{"horizon":5,"rewards_L":[58,39,47,42,43],"rewards_R":[53,42,50,41,60],"key_presses":["arrowright","arrowleft","arrowright","arrowright","arrowright"],"response_times":[743,326,324,742,576],"outcomes":[53,39,50,41,60],"screen_resolution":1,"trial_type":"horizons-trial","trial_index":84,"time_elapsed":644541,"internal_node_id":"0.0-80.0"},{"horizon":5,"rewards_L":[33,59,47,30,31],"rewards_R":[25,38,55,18,43],"key_presses":["arrowleft","arrowleft","arrowright","arrowright","arrowleft"],"response_times":[507,491,489,452,876],"outcomes":[33,59,55,18,31],"screen_resolution":1,"trial_type":"horizons-trial","trial_index":85,"time_elapsed":648597,"internal_node_id":"0.0-81.0"},{"horizon":10,"rewards_L":[27,19,21,32,37,18,19,45,36,34],"rewards_R":[58,55,70,80,59,64,45,60,77,66],"key_presses":["arrowright","arrowleft","arrowleft","arrowright","arrowright","arrowleft","arrowright","arrowright","arrowright","arrowright"],"response_times":[654,280,514,390,296,332,330,230,171,206],"outcomes":[58,19,21,80,59,18,45,60,77,66],"screen_resolution":1,"trial_type":"horizons-trial","trial_index":86,"time_elapsed":652521,"internal_node_id":"0.0-82.0"},{"horizon":5,"rewards_L":[56,49,67,80,57],"rewards_R":[57,53,65,61,48],"key_presses":["arrowleft","arrowleft","arrowleft","arrowright","arrowleft"],"response_times":[538,613,589,382,860],"outcomes":[56,49,67,61,57],"screen_resolution":1,"trial_type":"horizons-trial","trial_index":87,"time_elapsed":656416,"internal_node_id":"0.0-83.0"},{"horizon":5,"rewards_L":[44,31,36,46,50],"rewards_R":[39,25,21,34,40],"key_presses":["arrowright","arrowright","arrowleft","arrowleft","arrowleft"],"response_times":[581,411,364,356,1139],"outcomes":[39,25,36,46,50],"screen_resolution":1,"trial_type":"horizons-trial","trial_index":88,"time_elapsed":659821,"internal_node_id":"0.0-84.0"},{"horizon":5,"rewards_L":[52,34,25,41,41],"rewards_R":[17,19,22,24,27],"key_presses":["arrowleft","arrowleft","arrowleft","arrowright","arrowleft"],"response_times":[479,282,439,968,862],"outcomes":[52,34,25,24,41],"screen_resolution":1,"trial_type":"horizons-trial","trial_index":89,"time_elapsed":663852,"internal_node_id":"0.0-85.0"},{"horizon":5,"rewards_L":[42,48,33,43,48],"rewards_R":[31,18,30,29,26],"key_presses":["arrowleft","arrowright","arrowright","arrowright","arrowleft"],"response_times":[837,443,611,516,671],"outcomes":[42,18,30,29,48],"screen_resolution":1,"trial_type":"horizons-trial","trial_index":90,"time_elapsed":667879,"internal_node_id":"0.0-86.0"},{"horizon":5,"rewards_L":[54,40,49,44,36],"rewards_R":[33,45,36,45,51],"key_presses":["arrowright","arrowleft","arrowright","arrowleft","arrowleft"],"response_times":[696,408,410,440,1235],"outcomes":[33,40,36,44,36],"screen_resolution":1,"trial_type":"horizons-trial","trial_index":91,"time_elapsed":672032,"internal_node_id":"0.0-87.0"},{"horizon":10,"rewards_L":[36,39,35,40,47,30,39,30,41,40],"rewards_R":[86,68,65,80,66,81,54,67,85,82],"key_presses":["arrowright","arrowleft","arrowleft","arrowright","arrowleft","arrowright","arrowright","arrowright","arrowright","arrowright"],"response_times":[822,364,392,704,324,340,609,647,464,336],"outcomes":[86,39,35,80,47,81,54,67,85,82],"screen_resolution":1,"trial_type":"horizons-trial","trial_index":92,"time_elapsed":678027,"internal_node_id":"0.0-88.0"},{"horizon":5,"rewards_L":[75,54,64,62,62],"rewards_R":[64,74,80,70,66],"key_presses":["arrowleft","arrowleft","arrowright","arrowright","arrowright"],"response_times":[855,419,386,507,1935],"outcomes":[75,54,80,70,66],"screen_resolution":1,"trial_type":"horizons-trial","trial_index":93,"time_elapsed":682763,"internal_node_id":"0.0-89.0"},{"horizon":10,"rewards_L":[31,36,29,38,38,39,31,39,46,40],"rewards_R":[3,28,0,13,19,15,21,3,18,0],"key_presses":["arrowleft","arrowright","arrowright","arrowright","arrowleft","arrowright","arrowleft","arrowleft","arrowleft","arrowleft"],"response_times":[543,309,690,507,3058,643,405,984,491,270],"outcomes":[31,28,0,13,38,15,31,39,46,40],"screen_resolution":1,"trial_type":"horizons-trial","trial_index":94,"time_elapsed":692226,"internal_node_id":"0.0-90.0"},{"horizon":5,"rewards_L":[54,64,62,65,70],"rewards_R":[35,51,50,47,53],"key_presses":["arrowleft","arrowleft","arrowleft","arrowright","arrowleft"],"response_times":[521,448,569,843,667],"outcomes":[54,64,62,47,70],"screen_resolution":1,"trial_type":"horizons-trial","trial_index":95,"time_elapsed":695993,"internal_node_id":"0.0-91.0"},{"horizon":5,"rewards_L":[64,60,59,56,44],"rewards_R":[76,82,71,88,70],"key_presses":["arrowright","arrowleft","arrowleft","arrowright","arrowright"],"response_times":[589,353,535,396,593],"outcomes":[76,60,59,88,70],"screen_resolution":1,"trial_type":"horizons-trial","trial_index":96,"time_elapsed":698978,"internal_node_id":"0.0-92.0"},{"horizon":10,"rewards_L":[49,42,43,36,41,41,30,32,19,32],"rewards_R":[26,23,14,23,11,19,26,29,29,6],"key_presses":["arrowleft","arrowleft","arrowleft","arrowright","arrowright","arrowleft","arrowleft","arrowleft","arrowleft","arrowleft"],"response_times":[423,244,165,376,202,553,479,184,201,187],"outcomes":[49,42,43,23,11,41,30,32,19,32],"screen_resolution":1,"trial_type":"horizons-trial","trial_index":97,"time_elapsed":702551,"internal_node_id":"0.0-93.0"},{"horizon":5,"rewards_L":[45,52,50,56,70],"rewards_R":[48,31,29,40,24],"key_presses":["arrowleft","arrowleft","arrowright","arrowright","arrowleft"],"response_times":[423,323,353,444,288],"outcomes":[45,52,29,40,70],"screen_resolution":1,"trial_type":"horizons-trial","trial_index":98,"time_elapsed":705046,"internal_node_id":"0.0-94.0"},{"horizon":10,"rewards_L":[43,55,68,59,37,56,54,55,54,51],"rewards_R":[57,60,51,61,63,51,53,51,51,62],"key_presses":["arrowleft","arrowright","arrowright","arrowleft","arrowright","arrowleft","arrowleft","arrowright","arrowright","arrowright"],"response_times":[596,329,627,264,352,384,388,309,2179,444],"outcomes":[43,60,51,59,63,56,54,51,51,62],"screen_resolution":1,"trial_type":"horizons-trial","trial_index":99,"time_elapsed":711642,"internal_node_id":"0.0-95.0"},{"horizon":5,"rewards_L":[67,69,80,66,79],"rewards_R":[58,55,56,57,59],"key_presses":["arrowright","arrowleft","arrowright","arrowleft","arrowleft"],"response_times":[587,256,245,263,473],"outcomes":[58,69,56,66,79],"screen_resolution":1,"trial_type":"horizons-trial","trial_index":100,"time_elapsed":714019,"internal_node_id":"0.0-96.0"},{"horizon":5,"rewards_L":[60,58,82,73,67],"rewards_R":[26,42,39,32,24],"key_presses":["arrowleft","arrowright","arrowright","arrowright","arrowleft"],"response_times":[586,288,544,704,532],"outcomes":[60,42,39,32,67],"screen_resolution":1,"trial_type":"horizons-trial","trial_index":101,"time_elapsed":717554,"internal_node_id":"0.0-97.0"},{"horizon":10,"rewards_L":[34,22,35,41,31,28,24,39,31,44],"rewards_R":[37,72,68,55,59,65,68,62,69,56],"key_presses":["arrowright","arrowright","arrowright","arrowleft","arrowright","arrowright","arrowright","arrowright","arrowright","arrowright"],"response_times":[787,557,283,724,1036,407,366,465,315,308],"outcomes":[37,72,68,41,59,65,68,62,69,56],"screen_resolution":1,"trial_type":"horizons-trial","trial_index":102,"time_elapsed":723422,"internal_node_id":"0.0-98.0"},{"horizon":10,"rewards_L":[48,52,58,55,56,54,77,57,54,60],"rewards_R":[82,81,68,81,85,75,65,66,78,90],"key_presses":["arrowright","arrowleft","arrowleft","arrowright","arrowright","arrowleft","arrowright","arrowright","arrowright","arrowright"],"response_times":[700,404,325,403,901,332,344,298,174,316],"outcomes":[82,52,58,81,85,54,65,66,78,90],"screen_resolution":1,"trial_type":"horizons-trial","trial_index":103,"time_elapsed":728340,"internal_node_id":"0.0-99.0"},{"horizon":5,"rewards_L":[64,52,64,69,58],"rewards_R":[42,42,24,55,44],"key_presses":["arrowright","arrowright","arrowleft","arrowleft","arrowleft"],"response_times":[434,340,376,512,616],"outcomes":[42,42,64,69,58],"screen_resolution":1,"trial_type":"horizons-trial","trial_index":104,"time_elapsed":731250,"internal_node_id":"0.0-100.0"},{"horizon":10,"rewards_L":[61,53,48,62,47,53,56,52,57,52],"rewards_R":[33,39,34,30,35,38,40,40,48,38],"key_presses":["arrowright","arrowleft","arrowright","arrowright","arrowright","arrowleft","arrowright","arrowleft","arrowleft","arrowleft"],"response_times":[564,372,757,491,591,412,449,292,1035,383],"outcomes":[33,53,34,30,35,53,40,52,57,52],"screen_resolution":1,"trial_type":"horizons-trial","trial_index":105,"time_elapsed":737118,"internal_node_id":"0.0-101.0"},{"horizon":10,"rewards_L":[66,65,57,64,56,61,63,52,67,76],"rewards_R":[74,70,82,78,68,77,68,64,78,89],"key_presses":["arrowleft","arrowright","arrowright","arrowleft","arrowright","arrowright","arrowleft","arrowright","arrowright","arrowright"],"response_times":[711,312,556,447,534,518,396,344,1617,528],"outcomes":[66,70,82,64,68,77,63,64,78,89],"screen_resolution":1,"trial_type":"horizons-trial","trial_index":106,"time_elapsed":743816,"internal_node_id":"0.0-102.0"},{"horizon":10,"rewards_L":[58,59,57,50,54,54,61,62,46,74],"rewards_R":[66,80,86,97,84,70,80,71,79,89],"key_presses":["arrowleft","arrowright","arrowleft","arrowleft","arrowright","arrowleft","arrowright","arrowright","arrowright","arrowright"],"response_times":[594,240,393,856,332,467,316,212,200,356],"outcomes":[58,80,57,50,84,54,80,71,79,89],"screen_resolution":1,"trial_type":"horizons-trial","trial_index":107,"time_elapsed":748865,"internal_node_id":"0.0-103.0"},{"horizon":5,"rewards_L":[100,81,79,84,91],"rewards_R":[64,53,72,52,51],"key_presses":["arrowleft","arrowright","arrowright","arrowleft","arrowleft"],"response_times":[833,436,312,908,615],"outcomes":[100,53,72,84,91],"screen_resolution":1,"trial_type":"horizons-trial","trial_index":108,"time_elapsed":752734,"internal_node_id":"0.0-104.0"},{"horizon":10,"rewards_L":[100,100,84,91,98,81,87,80,90,97],"rewards_R":[68,61,74,60,54,68,64,70,67,65],"key_presses":["arrowright","arrowleft","arrowright","arrowright","arrowleft","arrowright","arrowleft","arrowright","arrowleft","arrowleft"],"response_times":[508,595,425,315,344,305,304,225,387,223],"outcomes":[68,100,74,60,98,68,87,70,90,97],"screen_resolution":1,"trial_type":"horizons-trial","trial_index":109,"time_elapsed":757320,"internal_node_id":"0.0-105.0"},{"horizon":10,"rewards_L":[39,46,41,35,45,35,33,42,47,42],"rewards_R":[29,27,18,30,34,34,26,22,40,18],"key_presses":["arrowright","arrowright","arrowleft","arrowleft","arrowright","arrowleft","arrowleft","arrowright","arrowleft","arrowleft"],"response_times":[440,407,308,426,409,432,728,196,625,328],"outcomes":[29,27,41,35,34,35,33,22,47,42],"screen_resolution":1,"trial_type":"horizons-trial","trial_index":110,"time_elapsed":762950,"internal_node_id":"0.0-106.0"},{"horizon":5,"rewards_L":[31,50,32,40,40],"rewards_R":[68,64,55,70,63],"key_presses":["arrowright","arrowright","arrowleft","arrowright","arrowright"],"response_times":[767,489,504,401,388],"outcomes":[68,64,32,70,63],"screen_resolution":1,"trial_type":"horizons-trial","trial_index":111,"time_elapsed":766338,"internal_node_id":"0.0-107.0"},{"horizon":5,"rewards_L":[79,87,63,74,83],"rewards_R":[63,70,52,61,59],"key_presses":["arrowleft","arrowleft","arrowright","arrowleft","arrowleft"],"response_times":[413,499,305,603,740],"outcomes":[79,87,52,74,83],"screen_resolution":1,"trial_type":"horizons-trial","trial_index":112,"time_elapsed":769891,"internal_node_id":"0.0-108.0"},{"horizon":10,"rewards_L":[62,62,62,71,62,57,55,55,76,66],"rewards_R":[52,62,59,56,38,59,63,48,49,55],"key_presses":["arrowright","arrowleft","arrowright","arrowleft","arrowright","arrowleft","arrowright","arrowleft","arrowleft","arrowleft"],"response_times":[631,253,356,229,300,300,359,308,2034,1685],"outcomes":[52,62,59,71,38,57,63,55,76,66],"screen_resolution":1,"trial_type":"horizons-trial","trial_index":113,"time_elapsed":777271,"internal_node_id":"0.0-109.0"},{"horizon":5,"rewards_L":[21,33,44,28,39],"rewards_R":[46,35,36,34,50],"key_presses":["arrowleft","arrowright","arrowleft","arrowright","arrowleft"],"response_times":[555,285,275,332,1896],"outcomes":[21,35,44,34,39],"screen_resolution":1,"trial_type":"horizons-trial","trial_index":114,"time_elapsed":781187,"internal_node_id":"0.0-110.0"},{"horizon":10,"rewards_L":[37,30,46,36,41,34,39,35,50,40],"rewards_R":[58,59,50,49,70,45,60,51,59,65],"key_presses":["arrowleft","arrowright","arrowleft","arrowleft","arrowright","arrowright","arrowright","arrowright","arrowright","arrowright"],"response_times":[847,317,259,868,881,344,516,271,293,277],"outcomes":[37,59,46,36,70,45,60,51,59,65],"screen_resolution":1,"trial_type":"horizons-trial","trial_index":115,"time_elapsed":787102,"internal_node_id":"0.0-111.0"},{"horizon":5,"rewards_L":[55,45,45,38,44],"rewards_R":[60,69,59,51,61],"key_presses":["arrowleft","arrowright","arrowright","arrowleft","arrowright"],"response_times":[1048,225,668,395,885],"outcomes":[55,69,59,38,61],"screen_resolution":1,"trial_type":"horizons-trial","trial_index":116,"time_elapsed":791006,"internal_node_id":"0.0-112.0"},{"horizon":5,"rewards_L":[47,46,53,55,37],"rewards_R":[54,50,50,55,56],"key_presses":["arrowright","arrowright","arrowright","arrowleft","arrowleft"],"response_times":[507,401,739,425,1732],"outcomes":[54,50,50,55,37],"screen_resolution":1,"trial_type":"horizons-trial","trial_index":117,"time_elapsed":797926,"internal_node_id":"0.0-113.0"},{"horizon":5,"rewards_L":[33,38,44,27,31],"rewards_R":[62,47,49,47,58],"key_presses":["arrowright","arrowleft","arrowleft","arrowleft","arrowright"],"response_times":[435,436,848,828,592],"outcomes":[62,38,44,27,58],"screen_resolution":1,"trial_type":"horizons-trial","trial_index":118,"time_elapsed":802326,"internal_node_id":"0.0-114.0"},{"horizon":10,"rewards_L":[51,52,52,60,59,58,59,69,49,64],"rewards_R":[43,41,47,36,52,44,36,45,43,40],"key_presses":["arrowright","arrowright","arrowleft","arrowleft","arrowright","arrowleft","arrowright","arrowleft","arrowleft","arrowleft"],"response_times":[507,392,792,688,397,387,361,520,1872,601],"outcomes":[43,41,52,60,52,58,36,69,49,64],"screen_resolution":1,"trial_type":"horizons-trial","trial_index":119,"time_elapsed":809490,"internal_node_id":"0.0-115.0"},{"horizon":5,"rewards_L":[52,53,56,52,58],"rewards_R":[77,75,75,66,75],"key_presses":["arrowleft","arrowright","arrowleft","arrowleft","arrowright"],"response_times":[600,312,308,773,479],"outcomes":[52,75,56,52,75],"screen_resolution":1,"trial_type":"horizons-trial","trial_index":120,"time_elapsed":813354,"internal_node_id":"0.0-116.0"},{"horizon":10,"rewards_L":[80,78,87,66,88,86,82,82,83,86],"rewards_R":[56,55,55,54,53,65,64,62,63,53],"key_presses":["arrowleft","arrowleft","arrowright","arrowleft","arrowright","arrowleft","arrowright","arrowleft","arrowleft","arrowleft"],"response_times":[592,460,508,389,366,618,636,400,1232,1616],"outcomes":[80,78,55,66,53,86,64,82,83,86],"screen_resolution":1,"trial_type":"horizons-trial","trial_index":121,"time_elapsed":820950,"internal_node_id":"0.0-117.0"},{"horizon":10,"rewards_L":[28,46,27,51,43,45,33,44,41,47],"rewards_R":[32,20,20,38,24,29,30,27,18,25],"key_presses":["arrowleft","arrowright","arrowleft","arrowright","arrowleft","arrowright","arrowleft","arrowleft","arrowright","arrowleft"],"response_times":[484,364,304,332,357,435,416,516,1721,360],"outcomes":[28,20,27,38,43,29,33,44,18,47],"screen_resolution":1,"trial_type":"horizons-trial","trial_index":122,"time_elapsed":826898,"internal_node_id":"0.0-118.0"},{"horizon":10,"rewards_L":[70,44,57,48,41,57,65,71,55,43],"rewards_R":[54,56,66,61,53,54,65,56,58,61],"key_presses":["arrowleft","arrowleft","arrowright","arrowright","arrowleft","arrowright","arrowright","arrowleft","arrowleft","arrowleft"],"response_times":[627,540,404,616,272,388,504,297,1511,2818],"outcomes":[70,44,66,61,41,54,65,71,55,43],"screen_resolution":1,"trial_type":"horizons-trial","trial_index":123,"time_elapsed":838511,"internal_node_id":"0.0-119.0"},{"horizon":10,"rewards_L":[61,57,64,67,45,62,55,61,59,61],"rewards_R":[35,34,33,34,29,36,22,24,25,20],"key_presses":["arrowright","arrowleft","arrowleft","arrowright","arrowleft","arrowright","arrowleft","arrowleft","arrowleft","arrowleft"],"response_times":[431,252,428,389,397,291,368,372,519,280],"outcomes":[35,57,64,34,45,36,55,61,59,61],"screen_resolution":1,"trial_type":"horizons-trial","trial_index":124,"time_elapsed":842808,"internal_node_id":"0.0-120.0"},{"horizon":10,"rewards_L":[32,37,24,40,50,41,35,39,49,33],"rewards_R":[65,64,44,68,70,58,62,63,69,49],"key_presses":["arrowleft","arrowright","arrowleft","arrowright","arrowleft","arrowright","arrowright","arrowright","arrowright","arrowright"],"response_times":[395,379,305,319,257,335,236,620,756,172],"outcomes":[32,64,24,68,50,58,62,63,69,49],"screen_resolution":1,"trial_type":"horizons-trial","trial_index":125,"time_elapsed":847302,"internal_node_id":"0.0-121.0"},{"horizon":10,"rewards_L":[50,40,43,31,39,58,33,42,36,39],"rewards_R":[41,58,37,49,39,30,36,40,38,40],"key_presses":["arrowleft","arrowright","arrowleft","arrowleft","arrowright","arrowleft","arrowright","arrowleft","arrowleft","arrowleft"],"response_times":[612,312,302,894,400,304,449,290,2450,4189],"outcomes":[50,58,43,31,39,58,36,42,36,39],"screen_resolution":1,"trial_type":"horizons-trial","trial_index":126,"time_elapsed":858041,"internal_node_id":"0.0-122.0"},{"horizon":5,"rewards_L":[34,52,42,47,41],"rewards_R":[49,58,41,39,53],"key_presses":["arrowleft","arrowleft","arrowright","arrowright","arrowleft"],"response_times":[656,385,355,520,412],"outcomes":[34,52,41,39,41],"screen_resolution":1,"trial_type":"horizons-trial","trial_index":127,"time_elapsed":861285,"internal_node_id":"0.0-123.0"},{"horizon":5,"rewards_L":[71,82,78,71,50],"rewards_R":[37,50,42,47,33],"key_presses":["arrowright","arrowright","arrowleft","arrowleft","arrowleft"],"response_times":[684,543,331,386,392],"outcomes":[37,50,78,71,50],"screen_resolution":1,"trial_type":"horizons-trial","trial_index":128,"time_elapsed":864418,"internal_node_id":"0.0-124.0"},{"horizon":5,"rewards_L":[24,17,44,39,36],"rewards_R":[16,3,5,24,7],"key_presses":["arrowleft","arrowleft","arrowleft","arrowright","arrowleft"],"response_times":[469,386,568,376,728],"outcomes":[24,17,44,24,36],"screen_resolution":1,"trial_type":"horizons-trial","trial_index":129,"time_elapsed":867937,"internal_node_id":"0.0-125.0"},{"horizon":5,"rewards_L":[38,31,39,36,51],"rewards_R":[0,5,19,1,0],"key_presses":["arrowleft","arrowright","arrowright","arrowright","arrowleft"],"response_times":[624,410,464,487,556],"outcomes":[38,5,19,1,51],"screen_resolution":1,"trial_type":"horizons-trial","trial_index":130,"time_elapsed":871113,"internal_node_id":"0.0-126.0"},{"horizon":10,"rewards_L":[33,35,37,24,64,42,43,36,39,37],"rewards_R":[31,28,39,33,50,25,36,30,43,35],"key_presses":["arrowright","arrowright","arrowright","arrowleft","arrowleft","arrowright","arrowleft","arrowright","arrowleft","arrowleft"],"response_times":[932,560,408,348,348,406,396,375,1291,2068],"outcomes":[31,28,39,24,64,25,43,30,39,37],"screen_resolution":1,"trial_type":"horizons-trial","trial_index":131,"time_elapsed":879171,"internal_node_id":"0.0-127.0"},{"horizon":10,"rewards_L":[40,40,46,47,42,31,27,50,35,38],"rewards_R":[56,57,58,55,71,55,51,49,66,67],"key_presses":["arrowleft","arrowleft","arrowright","arrowright","arrowright","arrowright","arrowleft","arrowright","arrowright","arrowright"],"response_times":[478,509,364,278,628,616,292,316,271,184],"outcomes":[40,40,58,55,71,55,27,49,66,67],"screen_resolution":1,"trial_type":"horizons-trial","trial_index":132,"time_elapsed":883845,"internal_node_id":"0.0-128.0"},{"horizon":10,"rewards_L":[10,12,12,7,3,17,8,12,12,14],"rewards_R":[31,45,32,32,41,36,33,32,41,38],"key_presses":["arrowright","arrowright","arrowright","arrowleft","arrowleft","arrowright","arrowright","arrowright","arrowright","arrowright"],"response_times":[671,388,584,385,342,310,303,218,240,156],"outcomes":[31,45,32,7,3,36,33,32,41,38],"screen_resolution":1,"trial_type":"horizons-trial","trial_index":133,"time_elapsed":888605,"internal_node_id":"0.0-129.0"},{"horizon":5,"rewards_L":[23,29,30,27,41],"rewards_R":[40,44,55,39,41],"key_presses":["arrowright","arrowright","arrowright","arrowleft","arrowright"],"response_times":[447,608,822,423,452],"outcomes":[40,44,55,27,41],"screen_resolution":1,"trial_type":"horizons-trial","trial_index":134,"time_elapsed":892070,"internal_node_id":"0.0-130.0"},{"horizon":10,"rewards_L":[68,56,65,54,52,62,66,54,59,53],"rewards_R":[35,36,39,64,55,45,28,43,47,34],"key_presses":["arrowleft","arrowleft","arrowright","arrowleft","arrowright","arrowleft","arrowright","arrowleft","arrowright","arrowleft"],"response_times":[435,284,339,410,318,460,312,436,480,1820],"outcomes":[68,56,39,54,55,62,28,54,47,53],"screen_resolution":1,"trial_type":"horizons-trial","trial_index":135,"time_elapsed":898337,"internal_node_id":"0.0-131.0"},{"horizon":10,"rewards_L":[54,72,61,38,61,52,55,65,71,55],"rewards_R":[82,86,83,88,81,94,83,84,96,95],"key_presses":["arrowleft","arrowright","arrowleft","arrowleft","arrowright","arrowleft","arrowright","arrowleft","arrowright","arrowright"],"response_times":[403,453,792,529,260,420,726,381,395,368],"outcomes":[54,86,61,38,81,52,83,65,96,95],"screen_resolution":1,"trial_type":"horizons-trial","trial_index":136,"time_elapsed":903597,"internal_node_id":"0.0-132.0"},{"horizon":10,"rewards_L":[61,49,34,31,39,31,34,39,44,39],"rewards_R":[18,21,28,20,14,23,23,20,17,14],"key_presses":["arrowleft","arrowright","arrowright","arrowleft","arrowright","arrowleft","arrowright","arrowleft","arrowright","arrowleft"],"response_times":[576,356,599,296,308,300,261,339,312,1215],"outcomes":[61,21,28,31,14,31,23,39,17,39],"screen_resolution":1,"trial_type":"horizons-trial","trial_index":137,"time_elapsed":909182,"internal_node_id":"0.0-133.0"},{"horizon":10,"rewards_L":[53,59,47,61,67,60,53,64,60,66],"rewards_R":[46,32,39,40,27,22,23,39,40,42],"key_presses":["arrowleft","arrowright","arrowright","arrowright","arrowleft","arrowright","arrowleft","arrowright","arrowleft","arrowleft"],"response_times":[405,375,511,664,276,348,263,324,292,524],"outcomes":[53,32,39,40,67,22,53,39,60,66],"screen_resolution":1,"trial_type":"horizons-trial","trial_index":138,"time_elapsed":914022,"internal_node_id":"0.0-134.0"},{"horizon":10,"rewards_L":[44,61,47,62,54,56,53,55,36,51],"rewards_R":[53,54,57,53,67,62,60,59,69,63],"key_presses":["arrowright","arrowleft","arrowleft","arrowleft","arrowright","arrowleft","arrowleft","arrowright","arrowleft","arrowright"],"response_times":[436,360,729,647,296,453,671,328,1048,3309],"outcomes":[53,61,47,62,67,56,53,59,36,63],"screen_resolution":1,"trial_type":"horizons-trial","trial_index":139,"time_elapsed":923204,"internal_node_id":"0.0-135.0"},{"horizon":10,"rewards_L":[28,33,36,36,27,51,37,33,22,43],"rewards_R":[34,29,30,27,35,33,41,23,30,44],"key_presses":["arrowleft","arrowright","arrowright","arrowright","arrowleft","arrowright","arrowright","arrowleft","arrowright","arrowright"],"response_times":[337,338,357,344,361,381,372,312,531,1084],"outcomes":[28,29,30,27,27,33,41,33,30,44],"screen_resolution":1,"trial_type":"horizons-trial","trial_index":140,"time_elapsed":928271,"internal_node_id":"0.0-136.0"},{"horizon":10,"rewards_L":[0,9,0,3,6,22,13,11,4,18],"rewards_R":[41,41,44,40,44,51,38,25,30,43],"key_presses":["arrowright","arrowright","arrowleft","arrowleft","arrowright","arrowright","arrowright","arrowright","arrowright","arrowright"],"response_times":[367,433,327,313,378,460,193,204,169,383],"outcomes":[41,41,0,3,44,51,38,25,30,43],"screen_resolution":1,"trial_type":"horizons-trial","trial_index":141,"time_elapsed":932168,"internal_node_id":"0.0-137.0"},{"horizon":5,"rewards_L":[89,77,82,70,83],"rewards_R":[61,53,56,66,69],"key_presses":["arrowleft","arrowleft","arrowright","arrowleft","arrowleft"],"response_times":[577,333,401,488,468],"outcomes":[89,77,56,70,83],"screen_resolution":1,"trial_type":"horizons-trial","trial_index":142,"time_elapsed":935232,"internal_node_id":"0.0-138.0"},{"horizon":5,"rewards_L":[61,47,63,68,63],"rewards_R":[64,75,66,67,62],"key_presses":["arrowright","arrowright","arrowleft","arrowright","arrowright"],"response_times":[432,336,505,651,1040],"outcomes":[64,75,63,67,62],"screen_resolution":1,"trial_type":"horizons-trial","trial_index":143,"time_elapsed":939204,"internal_node_id":"0.0-139.0"},{"horizon":5,"rewards_L":[43,32,44,25,26],"rewards_R":[35,53,38,55,35],"key_presses":["arrowright","arrowleft","arrowleft","arrowleft","arrowright"],"response_times":[444,1019,556,704,388],"outcomes":[35,32,44,25,35],"screen_resolution":1,"trial_type":"horizons-trial","trial_index":144,"time_elapsed":945120,"internal_node_id":"0.0-140.0"},{"horizon":5,"rewards_L":[81,58,74,58,71],"rewards_R":[63,71,65,68,52],"key_presses":["arrowright","arrowleft","arrowright","arrowright","arrowright"],"response_times":[454,359,340,535,1092],"outcomes":[63,58,65,68,52],"screen_resolution":1,"trial_type":"horizons-trial","trial_index":145,"time_elapsed":948567,"internal_node_id":"0.0-141.0"},{"horizon":10,"rewards_L":[63,46,70,65,61,61,56,67,52,54],"rewards_R":[68,80,75,81,72,65,57,57,53,70],"key_presses":["arrowleft","arrowright","arrowleft","arrowright","arrowleft","arrowright","arrowright","arrowright","arrowleft","arrowright"],"response_times":[808,301,249,248,231,255,1809,1124,426,2191],"outcomes":[63,80,70,81,61,65,57,57,52,70],"screen_resolution":1,"trial_type":"horizons-trial","trial_index":146,"time_elapsed":957044,"internal_node_id":"0.0-142.0"},{"horizon":5,"rewards_L":[48,37,58,51,44],"rewards_R":[55,50,59,65,49],"key_presses":["arrowright","arrowright","arrowleft","arrowright","arrowright"],"response_times":[580,377,479,464,3588],"outcomes":[55,50,58,65,49],"screen_resolution":1,"trial_type":"horizons-trial","trial_index":147,"time_elapsed":963091,"internal_node_id":"0.0-143.0"},{"horizon":5,"rewards_L":[60,59,59,58,51],"rewards_R":[39,34,52,38,28],"key_presses":["arrowright","arrowleft","arrowright","arrowright","arrowleft"],"response_times":[412,692,348,1004,1273],"outcomes":[39,59,52,38,51],"screen_resolution":1,"trial_type":"horizons-trial","trial_index":148,"time_elapsed":967463,"internal_node_id":"0.0-144.0"},{"horizon":5,"rewards_L":[27,35,38,47,41],"rewards_R":[35,34,47,26,42],"key_presses":["arrowright","arrowleft","arrowleft","arrowleft","arrowleft"],"response_times":[664,416,340,481,1564],"outcomes":[35,35,38,47,41],"screen_resolution":1,"trial_type":"horizons-trial","trial_index":149,"time_elapsed":971635,"internal_node_id":"0.0-145.0"},{"horizon":10,"rewards_L":[42,54,57,43,50,50,57,42,44,42],"rewards_R":[48,48,39,46,29,56,52,33,40,37],"key_presses":["arrowright","arrowleft","arrowleft","arrowright","arrowleft","arrowright","arrowleft","arrowright","arrowleft","arrowleft"],"response_times":[887,308,525,439,300,368,808,320,540,4309],"outcomes":[48,54,57,46,50,56,57,33,44,42],"screen_resolution":1,"trial_type":"horizons-trial","trial_index":150,"time_elapsed":981135,"internal_node_id":"0.0-146.0"},{"horizon":10,"rewards_L":[57,53,51,62,62,51,60,66,53,64],"rewards_R":[74,72,81,61,77,63,83,63,83,87],"key_presses":["arrowleft","arrowright","arrowleft","arrowleft","arrowright","arrowleft","arrowright","arrowright","arrowright","arrowright"],"response_times":[574,393,240,872,299,300,356,584,347,182],"outcomes":[57,72,51,62,77,51,83,63,83,87],"screen_resolution":1,"trial_type":"horizons-trial","trial_index":151,"time_elapsed":986142,"internal_node_id":"0.0-147.0"},{"horizon":10,"rewards_L":[69,62,49,58,53,66,46,55,58,56],"rewards_R":[65,53,51,61,57,56,66,43,64,64],"key_presses":["arrowright","arrowleft","arrowleft","arrowleft","arrowright","arrowleft","arrowleft","arrowright","arrowleft","arrowleft"],"response_times":[420,594,516,469,364,420,507,300,1029,557],"outcomes":[65,62,49,58,57,66,46,43,58,56],"screen_resolution":1,"trial_type":"horizons-trial","trial_index":152,"time_elapsed":991982,"internal_node_id":"0.0-148.0"},{"horizon":5,"rewards_L":[16,38,19,29,39],"rewards_R":[51,33,49,40,34],"key_presses":["arrowright","arrowleft","arrowleft","arrowleft","arrowright"],"response_times":[796,311,408,784,476],"outcomes":[51,38,19,29,34],"screen_resolution":1,"trial_type":"horizons-trial","trial_index":153,"time_elapsed":995525,"internal_node_id":"0.0-149.0"},{"horizon":5,"rewards_L":[46,43,49,48,41],"rewards_R":[50,44,51,53,67],"key_presses":["arrowleft","arrowright","arrowleft","arrowleft","arrowleft"],"response_times":[592,276,312,623,567],"outcomes":[46,44,49,48,41],"screen_resolution":1,"trial_type":"horizons-trial","trial_index":154,"time_elapsed":998825,"internal_node_id":"0.0-150.0"},{"horizon":5,"rewards_L":[76,59,68,70,71],"rewards_R":[62,80,72,55,78],"key_presses":["arrowleft","arrowright","arrowleft","arrowleft","arrowright"],"response_times":[461,403,351,600,1571],"outcomes":[76,80,68,70,78],"screen_resolution":1,"trial_type":"horizons-trial","trial_index":155,"time_elapsed":1003176,"internal_node_id":"0.0-151.0"},{"horizon":10,"rewards_L":[78,57,47,53,79,51,64,50,49,59],"rewards_R":[66,59,48,58,67,54,66,72,71,67],"key_presses":["arrowleft","arrowleft","arrowright","arrowright","arrowleft","arrowright","arrowleft","arrowright","arrowleft","arrowleft"],"response_times":[485,381,786,812,1884,220,570,296,767,8372],"outcomes":[78,57,48,58,79,54,64,72,49,59],"screen_resolution":1,"trial_type":"horizons-trial","trial_index":156,"time_elapsed":1019046,"internal_node_id":"0.0-152.0"},{"horizon":10,"rewards_L":[50,52,46,48,57,46,53,40,38,53],"rewards_R":[32,42,39,35,38,42,49,39,35,42],"key_presses":["arrowleft","arrowright","arrowright","arrowleft","arrowright","arrowleft","arrowright","arrowleft","arrowright","arrowleft"],"response_times":[919,324,308,278,327,330,247,347,356,2128],"outcomes":[50,42,39,48,38,46,49,40,35,53],"screen_resolution":1,"trial_type":"horizons-trial","trial_index":157,"time_elapsed":1025115,"internal_node_id":"0.0-153.0"},{"horizon":10,"rewards_L":[44,46,38,40,56,37,41,47,44,40],"rewards_R":[41,35,42,60,35,33,35,44,27,39],"key_presses":["arrowleft","arrowleft","arrowright","arrowleft","arrowright","arrowleft","arrowright","arrowleft","arrowright","arrowleft"],"response_times":[523,358,364,348,327,277,335,356,307,1564],"outcomes":[44,46,42,40,35,37,35,47,27,40],"screen_resolution":1,"trial_type":"horizons-trial","trial_index":158,"time_elapsed":1030514,"internal_node_id":"0.0-154.0"},{"horizon":10,"rewards_L":[69,58,49,64,52,59,56,52,63,58],"rewards_R":[42,54,46,45,55,39,58,49,39,56],"key_presses":["arrowleft","arrowright","arrowright","arrowright","arrowleft","arrowright","arrowleft","arrowright","arrowleft","arrowleft"],"response_times":[413,314,427,424,752,316,364,320,883,652],"outcomes":[69,54,46,45,52,39,56,49,63,58],"screen_resolution":1,"trial_type":"horizons-trial","trial_index":159,"time_elapsed":1035962,"internal_node_id":"0.0-155.0"},{"horizon":10,"rewards_L":[37,31,44,37,48,40,38,35,48,45],"rewards_R":[49,33,32,39,65,32,53,32,43,41],"key_presses":["arrowleft","arrowleft","arrowright","arrowright","arrowleft","arrowright","arrowleft","arrowright","arrowleft","arrowleft"],"response_times":[448,376,399,425,300,306,290,312,343,968],"outcomes":[37,31,32,39,48,32,38,32,48,45],"screen_resolution":1,"trial_type":"horizons-trial","trial_index":160,"time_elapsed":1040765,"internal_node_id":"0.0-156.0"},{"horizon":10,"rewards_L":[83,100,84,86,84,86,91,100,98,81],"rewards_R":[62,58,64,66,62,60,61,54,59,50],"key_presses":["arrowright","arrowright","arrowleft","arrowleft","arrowright","arrowleft","arrowleft","arrowleft","arrowleft","arrowleft"],"response_times":[734,417,287,344,349,264,176,180,180,176],"outcomes":[62,58,84,86,62,86,91,100,98,81],"screen_resolution":1,"trial_type":"horizons-trial","trial_index":161,"time_elapsed":1044532,"internal_node_id":"0.0-157.0"},{"horizon":10,"rewards_L":[38,26,26,48,34,41,32,23,38,46],"rewards_R":[32,46,51,50,38,42,68,63,50,51],"key_presses":["arrowleft","arrowright","arrowleft","arrowleft","arrowright","arrowleft","arrowright","arrowleft","arrowright","arrowright"],"response_times":[663,288,275,740,248,328,328,284,288,1033],"outcomes":[38,46,26,48,38,41,68,23,50,51],"screen_resolution":1,"trial_type":"horizons-trial","trial_index":162,"time_elapsed":1050195,"internal_node_id":"0.0-158.0"},{"horizon":5,"rewards_L":[99,97,70,99,84],"rewards_R":[63,68,70,60,58],"key_presses":["arrowleft","arrowleft","arrowright","arrowleft","arrowleft"],"response_times":[464,356,1008,1104,505],"outcomes":[99,97,70,99,84],"screen_resolution":1,"trial_type":"horizons-trial","trial_index":163,"time_elapsed":1054235,"internal_node_id":"0.0-159.0"},{"horizon":10,"rewards_L":[56,69,79,60,64,63,67,70,66,52],"rewards_R":[42,52,40,46,50,51,46,58,46,50],"key_presses":["arrowleft","arrowright","arrowright","arrowright","arrowleft","arrowright","arrowleft","arrowright","arrowleft","arrowleft"],"response_times":[549,297,586,708,268,342,254,352,847,622],"outcomes":[56,52,40,46,64,51,67,58,66,52],"screen_resolution":1,"trial_type":"horizons-trial","trial_index":164,"time_elapsed":1059756,"internal_node_id":"0.0-160.0"},{"horizon":10,"rewards_L":[47,25,42,45,41,45,50,36,45,39],"rewards_R":[27,11,11,14,31,28,23,24,17,30],"key_presses":["arrowleft","arrowright","arrowright","arrowright","arrowleft","arrowright","arrowleft","arrowleft","arrowleft","arrowleft"],"response_times":[460,316,540,521,280,303,245,276,163,168],"outcomes":[47,11,11,14,41,28,50,36,45,39],"screen_resolution":1,"trial_type":"horizons-trial","trial_index":165,"time_elapsed":1063532,"internal_node_id":"0.0-161.0"},{"horizon":10,"rewards_L":[40,46,22,45,33,27,39,48,34,39],"rewards_R":[66,64,57,49,61,61,74,56,64,66],"key_presses":["arrowleft","arrowright","arrowleft","arrowright","arrowleft","arrowright","arrowright","arrowright","arrowright","arrowright"],"response_times":[427,588,279,280,285,215,492,185,195,172],"outcomes":[40,64,22,49,33,61,74,56,64,66],"screen_resolution":1,"trial_type":"horizons-trial","trial_index":166,"time_elapsed":1067600,"internal_node_id":"0.0-162.0"},{"horizon":5,"rewards_L":[66,57,51,65,64],"rewards_R":[53,37,36,40,45],"key_presses":["arrowleft","arrowright","arrowright","arrowleft","arrowleft"],"response_times":[588,333,63,657,527],"outcomes":[66,37,36,65,64],"screen_resolution":1,"trial_type":"horizons-trial","trial_index":167,"time_elapsed":1070500,"internal_node_id":"0.0-163.0"},{"horizon":10,"rewards_L":[13,32,33,21,28,27,39,22,35,31],"rewards_R":[21,33,33,34,32,29,39,38,36,58],"key_presses":["arrowright","arrowleft","arrowleft","arrowleft","arrowleft","arrowright","arrowleft","arrowright","arrowleft","arrowleft"],"response_times":[547,625,480,236,172,248,385,304,412,7481],"outcomes":[21,32,33,21,28,29,39,38,35,31],"screen_resolution":1,"trial_type":"horizons-trial","trial_index":168,"time_elapsed":1082044,"internal_node_id":"0.0-164.0"},{"horizon":10,"rewards_L":[33,40,42,28,23,34,56,33,32,34],"rewards_R":[46,55,50,55,52,48,45,57,60,65],"key_presses":["arrowright","arrowright","arrowleft","arrowright","arrowleft","arrowright","arrowleft","arrowright","arrowleft","arrowright"],"response_times":[452,344,305,511,255,276,376,305,495,3220],"outcomes":[46,55,42,55,23,48,56,57,32,65],"screen_resolution":1,"trial_type":"horizons-trial","trial_index":169,"time_elapsed":1089780,"internal_node_id":"0.0-165.0"},{"horizon":5,"rewards_L":[51,54,45,35,48],"rewards_R":[48,43,35,50,40],"key_presses":["arrowleft","arrowright","arrowright","arrowleft","arrowleft"],"response_times":[631,232,548,337,1508],"outcomes":[51,43,35,35,48],"screen_resolution":1,"trial_type":"horizons-trial","trial_index":170,"time_elapsed":1093567,"internal_node_id":"0.0-166.0"},{"horizon":5,"rewards_L":[63,48,67,65,54],"rewards_R":[89,86,92,86,87],"key_presses":["arrowleft","arrowright","arrowleft","arrowleft","arrowright"],"response_times":[724,320,304,601,579],"outcomes":[63,86,67,65,87],"screen_resolution":1,"trial_type":"horizons-trial","trial_index":171,"time_elapsed":1096876,"internal_node_id":"0.0-167.0"},{"horizon":5,"rewards_L":[16,15,23,32,20],"rewards_R":[27,30,59,28,32],"key_presses":["arrowleft","arrowright","arrowleft","arrowright","arrowright"],"response_times":[541,318,361,411,1424],"outcomes":[16,30,23,28,32],"screen_resolution":1,"trial_type":"horizons-trial","trial_index":172,"time_elapsed":1100718,"internal_node_id":"0.0-168.0"},{"horizon":10,"rewards_L":[38,38,34,39,26,58,30,53,46,31],"rewards_R":[69,42,67,61,52,59,64,62,53,55],"key_presses":["arrowright","arrowright","arrowleft","arrowright","arrowleft","arrowright","arrowleft","arrowright","arrowright","arrowright"],"response_times":[637,451,316,301,251,281,323,504,272,272],"outcomes":[69,42,34,61,26,59,30,62,53,55],"screen_resolution":1,"trial_type":"horizons-trial","trial_index":173,"time_elapsed":1105022,"internal_node_id":"0.0-169.0"},{"horizon":5,"rewards_L":[88,79,66,95,82],"rewards_R":[63,57,59,61,63],"key_presses":["arrowleft","arrowleft","arrowright","arrowright","arrowleft"],"response_times":[624,459,317,359,309],"outcomes":[88,79,59,61,82],"screen_resolution":1,"trial_type":"horizons-trial","trial_index":174,"time_elapsed":1107945,"internal_node_id":"0.0-170.0"},{"horizon":5,"rewards_L":[50,50,71,63,55],"rewards_R":[58,58,56,57,53],"key_presses":["arrowleft","arrowright","arrowright","arrowright","arrowright"],"response_times":[356,632,545,786,458],"outcomes":[50,58,56,57,53],"screen_resolution":1,"trial_type":"horizons-trial","trial_index":175,"time_elapsed":1111238,"internal_node_id":"0.0-171.0"},{"horizon":5,"rewards_L":[55,58,64,65,68],"rewards_R":[71,57,77,63,68],"key_presses":["arrowright","arrowright","arrowleft","arrowright","arrowright"],"response_times":[633,399,359,412,364],"outcomes":[71,57,64,63,68],"screen_resolution":1,"trial_type":"horizons-trial","trial_index":176,"time_elapsed":1114122,"internal_node_id":"0.0-172.0"},{"horizon":10,"rewards_L":[37,32,24,28,36,37,42,25,20,23],"rewards_R":[64,54,68,59,55,46,72,58,51,53],"key_presses":["arrowleft","arrowright","arrowright","arrowleft","arrowright","arrowleft","arrowright","arrowleft","arrowright","arrowright"],"response_times":[579,324,520,376,296,248,248,221,503,300],"outcomes":[37,54,68,28,55,37,72,25,51,53],"screen_resolution":1,"trial_type":"horizons-trial","trial_index":177,"time_elapsed":1118254,"internal_node_id":"0.0-173.0"},{"horizon":10,"rewards_L":[54,44,35,31,46,46,47,44,41,54],"rewards_R":[56,69,75,69,62,71,62,53,49,56],"key_presses":["arrowright","arrowright","arrowleft","arrowleft","arrowright","arrowright","arrowleft","arrowright","arrowright","arrowright"],"response_times":[382,347,328,316,239,265,327,246,203,179],"outcomes":[56,69,35,31,62,71,47,53,49,56],"screen_resolution":1,"trial_type":"horizons-trial","trial_index":178,"time_elapsed":1121849,"internal_node_id":"0.0-174.0"},{"horizon":5,"rewards_L":[41,39,38,47,36],"rewards_R":[54,69,50,48,56],"key_presses":["arrowright","arrowleft","arrowleft","arrowleft","arrowright"],"response_times":[270,319,592,832,1296],"outcomes":[54,39,38,47,56],"screen_resolution":1,"trial_type":"horizons-trial","trial_index":179,"time_elapsed":1126191,"internal_node_id":"0.0-175.0"},{"horizon":5,"rewards_L":[36,30,34,43,30],"rewards_R":[31,42,41,35,28],"key_presses":["arrowleft","arrowright","arrowleft","arrowright","arrowright"],"response_times":[483,364,320,261,1091],"outcomes":[36,42,34,35,28],"screen_resolution":1,"trial_type":"horizons-trial","trial_index":180,"time_elapsed":1129536,"internal_node_id":"0.0-176.0"},{"horizon":5,"rewards_L":[39,46,45,41,42],"rewards_R":[51,49,57,51,52],"key_presses":["arrowleft","arrowright","arrowright","arrowleft","arrowright"],"response_times":[669,296,596,316,508],"outcomes":[39,49,57,41,52],"screen_resolution":1,"trial_type":"horizons-trial","trial_index":181,"time_elapsed":1132586,"internal_node_id":"0.0-177.0"},{"horizon":5,"rewards_L":[47,60,55,62,64],"rewards_R":[35,52,47,70,49],"key_presses":["arrowleft","arrowright","arrowright","arrowright","arrowright"],"response_times":[755,356,448,673,503],"outcomes":[47,52,47,70,49],"screen_resolution":1,"trial_type":"horizons-trial","trial_index":182,"time_elapsed":1136167,"internal_node_id":"0.0-178.0"},{"horizon":5,"rewards_L":[62,81,60,62,60],"rewards_R":[75,64,55,70,52],"key_presses":["arrowright","arrowleft","arrowleft","arrowright","arrowright"],"response_times":[330,361,428,580,4880],"outcomes":[75,81,60,70,52],"screen_resolution":1,"trial_type":"horizons-trial","trial_index":183,"time_elapsed":1143720,"internal_node_id":"0.0-179.0"},{"horizon":5,"rewards_L":[65,60,75,45,58],"rewards_R":[83,82,92,71,64],"key_presses":["arrowright","arrowright","arrowleft","arrowright","arrowright"],"response_times":[623,437,890,261,791],"outcomes":[83,82,75,71,64],"screen_resolution":1,"trial_type":"horizons-trial","trial_index":184,"time_elapsed":1147638,"internal_node_id":"0.0-180.0"},{"horizon":5,"rewards_L":[0,10,0,6,17],"rewards_R":[42,48,49,63,33],"key_presses":["arrowright","arrowleft","arrowleft","arrowleft","arrowright"],"response_times":[305,811,451,1060,352],"outcomes":[42,10,0,6,33],"screen_resolution":1,"trial_type":"horizons-trial","trial_index":185,"time_elapsed":1151221,"internal_node_id":"0.0-181.0"},{"horizon":10,"rewards_L":[82,76,79,78,93,71,72,83,77,84],"rewards_R":[65,67,52,52,61,47,71,66,62,52],"key_presses":["arrowleft","arrowleft","arrowright","arrowright","arrowleft","arrowright","arrowleft","arrowright","arrowleft","arrowleft"],"response_times":[885,519,393,981,591,296,480,564,517,624],"outcomes":[82,76,52,52,93,47,72,66,77,84],"screen_resolution":1,"trial_type":"horizons-trial","trial_index":186,"time_elapsed":1157686,"internal_node_id":"0.0-182.0"},{"horizon":5,"rewards_L":[44,48,37,41,44],"rewards_R":[33,27,27,16,15],"key_presses":["arrowleft","arrowleft","arrowleft","arrowright","arrowleft"],"response_times":[648,576,577,507,640],"outcomes":[44,48,37,16,44],"screen_resolution":1,"trial_type":"horizons-trial","trial_index":187,"time_elapsed":1161156,"internal_node_id":"0.0-183.0"},{"horizon":10,"rewards_L":[59,57,47,62,60,59,50,72,59,56],"rewards_R":[42,44,45,47,30,51,50,32,53,37],"key_presses":["arrowright","arrowleft","arrowright","arrowright","arrowleft","arrowright","arrowleft","arrowright","arrowleft","arrowleft"],"response_times":[557,267,280,552,342,409,385,259,429,560],"outcomes":[42,57,45,47,60,51,50,32,59,56],"screen_resolution":1,"trial_type":"horizons-trial","trial_index":188,"time_elapsed":1166068,"internal_node_id":"0.0-184.0"},{"horizon":10,"rewards_L":[57,50,77,69,52,47,68,54,66,68],"rewards_R":[16,22,27,34,20,14,23,34,34,29],"key_presses":["arrowleft","arrowright","arrowright","arrowleft","arrowright","arrowleft","arrowright","arrowleft","arrowright","arrowleft"],"response_times":[356,356,536,248,508,212,457,299,401,429],"outcomes":[57,22,27,69,20,47,23,54,34,68],"screen_resolution":1,"trial_type":"horizons-trial","trial_index":189,"time_elapsed":1170385,"internal_node_id":"0.0-185.0"},{"horizon":10,"rewards_L":[40,49,58,49,68,48,46,55,35,54],"rewards_R":[59,58,45,68,63,57,49,62,49,75],"key_presses":["arrowright","arrowleft","arrowleft","arrowright","arrowright","arrowleft","arrowright","arrowright","arrowright","arrowright"],"response_times":[500,305,483,368,1028,321,675,208,220,432],"outcomes":[59,49,58,68,63,48,49,62,49,75],"screen_resolution":1,"trial_type":"horizons-trial","trial_index":190,"time_elapsed":1175616,"internal_node_id":"0.0-186.0"},{"horizon":5,"rewards_L":[81,80,74,72,76],"rewards_R":[32,36,38,36,32],"key_presses":["arrowright","arrowleft","arrowright","arrowleft","arrowright"],"response_times":[604,303,272,345,404],"outcomes":[32,80,38,72,32],"screen_resolution":1,"trial_type":"horizons-trial","trial_index":191,"time_elapsed":1182797,"internal_node_id":"0.0-187.0"},{"horizon":5,"rewards_L":[29,37,21,23,31],"rewards_R":[27,39,44,48,33],"key_presses":["arrowright","arrowright","arrowright","arrowleft","arrowright"],"response_times":[672,516,535,364,724],"outcomes":[27,39,44,23,33],"screen_resolution":1,"trial_type":"horizons-trial","trial_index":192,"time_elapsed":1189389,"internal_node_id":"0.0-188.0"},{"horizon":5,"rewards_L":[72,56,58,54,56],"rewards_R":[43,63,63,53,47],"key_presses":["arrowleft","arrowleft","arrowright","arrowleft","arrowright"],"response_times":[662,397,343,400,2272],"outcomes":[72,56,63,54,47],"screen_resolution":1,"trial_type":"horizons-trial","trial_index":193,"time_elapsed":1194212,"internal_node_id":"0.0-189.0"},{"horizon":10,"rewards_L":[49,39,52,51,44,42,57,48,61,69],"rewards_R":[55,58,66,38,68,59,56,56,61,58],"key_presses":["arrowright","arrowleft","arrowright","arrowleft","arrowright","arrowleft","arrowright","arrowleft","arrowright","arrowright"],"response_times":[439,360,288,260,220,352,281,320,352,1732],"outcomes":[55,39,66,51,68,42,56,48,61,58],"screen_resolution":1,"trial_type":"horizons-trial","trial_index":194,"time_elapsed":1199824,"internal_node_id":"0.0-190.0"},{"horizon":5,"rewards_L":[30,46,43,42,36],"rewards_R":[60,39,43,56,40],"key_presses":["arrowleft","arrowright","arrowleft","arrowright","arrowright"],"response_times":[768,379,368,412,1829],"outcomes":[30,39,43,56,40],"screen_resolution":1,"trial_type":"horizons-trial","trial_index":195,"time_elapsed":1204733,"internal_node_id":"0.0-191.0"},{"horizon":5,"rewards_L":[34,47,32,45,41],"rewards_R":[58,60,60,58,68],"key_presses":["arrowright","arrowleft","arrowright","arrowleft","arrowright"],"response_times":[459,362,315,379,584],"outcomes":[58,47,60,45,68],"screen_resolution":1,"trial_type":"horizons-trial","trial_index":196,"time_elapsed":1207516,"internal_node_id":"0.0-192.0"},{"horizon":10,"rewards_L":[57,68,57,68,67,67,44,48,61,54],"rewards_R":[36,47,35,46,72,37,52,56,29,54],"key_presses":["arrowleft","arrowright","arrowright","arrowleft","arrowright","arrowleft","arrowright","arrowleft","arrowright","arrowleft"],"response_times":[652,308,525,359,324,308,336,333,398,5913],"outcomes":[57,47,35,68,72,67,52,48,29,54],"screen_resolution":1,"trial_type":"horizons-trial","trial_index":197,"time_elapsed":1217928,"internal_node_id":"0.0-193.0"},{"horizon":5,"rewards_L":[54,68,51,67,55],"rewards_R":[46,37,29,46,52],"key_presses":["arrowright","arrowleft","arrowleft","arrowright","arrowleft"],"response_times":[515,276,595,262,1196],"outcomes":[46,68,51,46,55],"screen_resolution":1,"trial_type":"horizons-trial","trial_index":198,"time_elapsed":1221459,"internal_node_id":"0.0-194.0"},{"horizon":10,"rewards_L":[71,63,65,66,74,76,66,56,77,59],"rewards_R":[49,42,36,34,26,44,32,37,30,54],"key_presses":["arrowleft","arrowleft","arrowright","arrowleft","arrowright","arrowleft","arrowright","arrowleft","arrowleft","arrowleft"],"response_times":[838,541,320,340,326,279,444,347,193,383],"outcomes":[71,63,36,66,26,76,32,56,77,59],"screen_resolution":1,"trial_type":"horizons-trial","trial_index":199,"time_elapsed":1226119,"internal_node_id":"0.0-195.0"},{"horizon":10,"rewards_L":[44,38,28,32,22,46,34,47,32,33],"rewards_R":[58,55,52,62,45,56,40,60,62,53],"key_presses":["arrowright","arrowleft","arrowleft","arrowright","arrowleft","arrowright","arrowright","arrowright","arrowright","arrowright"],"response_times":[634,310,414,365,367,277,668,384,615,212],"outcomes":[58,38,28,62,22,56,40,60,62,53],"screen_resolution":1,"trial_type":"horizons-trial","trial_index":200,"time_elapsed":1231014,"internal_node_id":"0.0-196.0"},{"horizon":10,"rewards_L":[42,43,58,49,61,46,49,53,52,47],"rewards_R":[65,51,62,54,58,56,53,74,63,63],"key_presses":["arrowright","arrowright","arrowright","arrowleft","arrowleft","arrowright","arrowright","arrowright","arrowleft","arrowright"],"response_times":[640,436,348,503,324,360,400,295,820,1004],"outcomes":[65,51,62,49,61,56,53,74,52,63],"screen_resolution":1,"trial_type":"horizons-trial","trial_index":201,"time_elapsed":1236826,"internal_node_id":"0.0-197.0"},{"horizon":10,"rewards_L":[84,64,67,62,62,67,69,70,61,62],"rewards_R":[57,61,60,43,63,55,59,50,62,58],"key_presses":["arrowright","arrowleft","arrowright","arrowright","arrowleft","arrowright","arrowleft","arrowright","arrowleft","arrowleft"],"response_times":[465,327,303,644,341,319,363,314,1442,860],"outcomes":[57,64,60,43,62,55,69,50,61,62],"screen_resolution":1,"trial_type":"horizons-trial","trial_index":202,"time_elapsed":1242843,"internal_node_id":"0.0-198.0"},{"horizon":10,"rewards_L":[45,45,66,56,46,55,49,65,69,74],"rewards_R":[93,88,93,77,92,96,79,94,92,98],"key_presses":["arrowright","arrowright","arrowleft","arrowright","arrowleft","arrowright","arrowleft","arrowright","arrowright","arrowright"],"response_times":[423,460,363,404,386,867,436,332,240,368],"outcomes":[93,88,66,77,46,96,49,94,92,98],"screen_resolution":1,"trial_type":"horizons-trial","trial_index":203,"time_elapsed":1247719,"internal_node_id":"0.0-199.0"},{"horizon":10,"rewards_L":[81,84,71,71,80,84,75,89,84,98],"rewards_R":[60,56,71,53,66,51,43,71,60,68],"key_presses":["arrowright","arrowleft","arrowleft","arrowright","arrowleft","arrowright","arrowright","arrowright","arrowleft","arrowleft"],"response_times":[415,344,420,361,359,288,468,504,397,643],"outcomes":[60,84,71,53,80,51,43,71,84,98],"screen_resolution":1,"trial_type":"horizons-trial","trial_index":204,"time_elapsed":1252599,"internal_node_id":"0.0-200.0"},{"horizon":5,"rewards_L":[31,34,25,24,50],"rewards_R":[58,68,71,44,57],"key_presses":["arrowleft","arrowleft","arrowright","arrowright","arrowright"],"response_times":[555,428,392,399,402],"outcomes":[31,34,71,44,57],"screen_resolution":1,"trial_type":"horizons-trial","trial_index":205,"time_elapsed":1255802,"internal_node_id":"0.0-201.0"},{"horizon":10,"rewards_L":[24,40,48,45,40,41,29,35,30,35],"rewards_R":[16,9,28,12,18,9,21,12,11,11],"key_presses":["arrowleft","arrowleft","arrowleft","arrowright","arrowright","arrowleft","arrowleft","arrowleft","arrowleft","arrowleft"],"response_times":[547,377,367,347,488,334,380,188,172,380],"outcomes":[24,40,48,12,18,41,29,35,30,35],"screen_resolution":1,"trial_type":"horizons-trial","trial_index":206,"time_elapsed":1269015,"internal_node_id":"0.0-202.0"},{"horizon":10,"rewards_L":[44,55,25,37,65,39,44,33,37,44],"rewards_R":[30,11,43,22,42,22,27,20,19,33],"key_presses":["arrowleft","arrowleft","arrowleft","arrowright","arrowleft","arrowright","arrowleft","arrowleft","arrowleft","arrowleft"],"response_times":[619,444,600,349,415,328,392,456,412,604],"outcomes":[44,55,25,22,65,22,44,33,37,44],"screen_resolution":1,"trial_type":"horizons-trial","trial_index":207,"time_elapsed":1274410,"internal_node_id":"0.0-203.0"},{"horizon":10,"rewards_L":[59,65,67,65,53,58,56,58,52,61],"rewards_R":[68,70,83,77,79,73,69,81,75,77],"key_presses":["arrowright","arrowleft","arrowright","arrowleft","arrowright","arrowleft","arrowright","arrowleft","arrowright","arrowright"],"response_times":[447,382,328,362,280,307,308,480,468,2036],"outcomes":[68,65,83,65,79,58,69,58,75,77],"screen_resolution":1,"trial_type":"horizons-trial","trial_index":208,"time_elapsed":1281293,"internal_node_id":"0.0-204.0"},{"horizon":10,"rewards_L":[67,68,76,60,62,72,70,68,58,72],"rewards_R":[64,64,51,60,79,68,52,76,59,68],"key_presses":["arrowleft","arrowleft","arrowright","arrowleft","arrowright","arrowleft","arrowleft","arrowright","arrowright","arrowleft"],"response_times":[415,764,312,368,356,396,457,479,3135,6049],"outcomes":[67,68,51,60,79,72,70,76,59,72],"screen_resolution":1,"trial_type":"horizons-trial","trial_index":209,"time_elapsed":1294873,"internal_node_id":"0.0-205.0"},{"horizon":5,"rewards_L":[28,19,32,24,41],"rewards_R":[44,37,46,36,47],"key_presses":["arrowleft","arrowleft","arrowright","arrowright","arrowright"],"response_times":[523,305,459,593,504],"outcomes":[28,19,46,36,47],"screen_resolution":1,"trial_type":"horizons-trial","trial_index":210,"time_elapsed":1297800,"internal_node_id":"0.0-206.0"},{"horizon":10,"rewards_L":[56,50,64,50,54,62,61,59,77,46],"rewards_R":[67,58,47,50,50,57,47,50,46,41],"key_presses":["arrowleft","arrowleft","arrowright","arrowright","arrowleft","arrowright","arrowleft","arrowright","arrowleft","arrowleft"],"response_times":[640,459,293,420,261,404,320,348,597,635],"outcomes":[56,50,47,50,54,57,61,50,77,46],"screen_resolution":1,"trial_type":"horizons-trial","trial_index":211,"time_elapsed":1302953,"internal_node_id":"0.0-207.0"},{"horizon":5,"rewards_L":[38,26,31,46,40],"rewards_R":[11,28,2,19,20],"key_presses":["arrowleft","arrowleft","arrowright","arrowright","arrowleft"],"response_times":[488,312,381,499,375],"outcomes":[38,26,2,19,40],"screen_resolution":1,"trial_type":"horizons-trial","trial_index":212,"time_elapsed":1305533,"internal_node_id":"0.0-208.0"},{"horizon":10,"rewards_L":[2,3,23,17,7,14,6,0,6,12],"rewards_R":[49,37,55,48,46,40,42,41,41,59],"key_presses":["arrowright","arrowleft","arrowleft","arrowleft","arrowright","arrowleft","arrowright","arrowright","arrowright","arrowright"],"response_times":[815,404,344,364,376,360,376,320,392,347],"outcomes":[49,3,23,17,46,14,42,41,41,59],"screen_resolution":1,"trial_type":"horizons-trial","trial_index":213,"time_elapsed":1310144,"internal_node_id":"0.0-209.0"},{"horizon":5,"rewards_L":[62,61,68,54,58],"rewards_R":[60,42,37,63,59],"key_presses":["arrowleft","arrowleft","arrowleft","arrowright","arrowleft"],"response_times":[460,305,655,360,596],"outcomes":[62,61,68,63,58],"screen_resolution":1,"trial_type":"horizons-trial","trial_index":214,"time_elapsed":1313400,"internal_node_id":"0.0-210.0"},{"horizon":5,"rewards_L":[83,72,78,48,73],"rewards_R":[59,57,68,53,57],"key_presses":["arrowleft","arrowright","arrowright","arrowleft","arrowleft"],"response_times":[449,348,436,396,1489],"outcomes":[83,57,68,48,73],"screen_resolution":1,"trial_type":"horizons-trial","trial_index":215,"time_elapsed":1317404,"internal_node_id":"0.0-211.0"},{"horizon":10,"rewards_L":[52,57,43,66,59,59,53,66,65,57],"rewards_R":[61,62,65,71,67,50,59,74,63,65],"key_presses":["arrowleft","arrowright","arrowleft","arrowleft","arrowright","arrowleft","arrowleft","arrowright","arrowleft","arrowright"],"response_times":[460,352,324,572,405,288,665,291,505,311],"outcomes":[52,62,43,66,67,59,53,74,65,65],"screen_resolution":1,"trial_type":"horizons-trial","trial_index":216,"time_elapsed":1322289,"internal_node_id":"0.0-212.0"},{"horizon":5,"rewards_L":[61,68,48,43,49],"rewards_R":[87,60,75,67,58],"key_presses":["arrowright","arrowleft","arrowright","arrowleft","arrowright"],"response_times":[579,297,323,416,785],"outcomes":[87,68,75,43,58],"screen_resolution":1,"trial_type":"horizons-trial","trial_index":217,"time_elapsed":1325541,"internal_node_id":"0.0-213.0"},{"horizon":5,"rewards_L":[20,14,0,12,27],"rewards_R":[49,30,52,46,40],"key_presses":["arrowright","arrowleft","arrowleft","arrowright","arrowright"],"response_times":[487,356,528,368,296],"outcomes":[49,14,0,46,40],"screen_resolution":1,"trial_type":"horizons-trial","trial_index":218,"time_elapsed":1328544,"internal_node_id":"0.0-214.0"},{"horizon":5,"rewards_L":[65,75,58,74,75],"rewards_R":[52,52,54,72,48],"key_presses":["arrowright","arrowleft","arrowright","arrowright","arrowleft"],"response_times":[460,335,484,1408,1140],"outcomes":[52,75,54,72,75],"screen_resolution":1,"trial_type":"horizons-trial","trial_index":219,"time_elapsed":1333068,"internal_node_id":"0.0-215.0"},{"horizon":10,"rewards_L":[35,40,39,49,45,32,27,43,43,36],"rewards_R":[31,36,40,48,40,53,46,44,42,61],"key_presses":["arrowleft","arrowright","arrowright","arrowleft","arrowright","arrowleft","arrowleft","arrowright","arrowleft","arrowleft"],"response_times":[744,332,473,324,363,344,501,280,911,6084],"outcomes":[35,36,40,49,40,32,27,44,43,36],"screen_resolution":1,"trial_type":"horizons-trial","trial_index":220,"time_elapsed":1344578,"internal_node_id":"0.0-216.0"},{"horizon":5,"rewards_L":[67,61,66,68,61],"rewards_R":[52,43,46,61,49],"key_presses":["arrowleft","arrowright","arrowleft","arrowright","arrowleft"],"response_times":[840,340,497,784,1279],"outcomes":[67,43,66,61,61],"screen_resolution":1,"trial_type":"horizons-trial","trial_index":221,"time_elapsed":1349159,"internal_node_id":"0.0-217.0"},{"horizon":5,"rewards_L":[56,43,39,35,42],"rewards_R":[67,78,54,58,62],"key_presses":["arrowright","arrowright","arrowleft","arrowleft","arrowright"],"response_times":[460,368,432,428,600],"outcomes":[67,78,39,35,62],"screen_resolution":1,"trial_type":"horizons-trial","trial_index":222,"time_elapsed":1352491,"internal_node_id":"0.0-218.0"},{"horizon":5,"rewards_L":[49,52,40,37,58],"rewards_R":[47,41,34,40,45],"key_presses":["arrowright","arrowleft","arrowright","arrowright","arrowleft"],"response_times":[488,340,364,688,1172],"outcomes":[47,52,34,40,58],"screen_resolution":1,"trial_type":"horizons-trial","trial_index":223,"time_elapsed":1356255,"internal_node_id":"0.0-219.0"},{"horizon":10,"rewards_L":[54,48,62,64,73,46,70,63,58,63],"rewards_R":[74,70,70,74,55,63,78,61,59,54],"key_presses":["arrowright","arrowright","arrowleft","arrowright","arrowleft","arrowright","arrowleft","arrowright","arrowleft","arrowright"],"response_times":[516,592,312,340,304,317,255,441,500,1240],"outcomes":[74,70,62,74,73,63,70,61,58,54],"screen_resolution":1,"trial_type":"horizons-trial","trial_index":224,"time_elapsed":1361982,"internal_node_id":"0.0-220.0"},{"horizon":5,"rewards_L":[63,72,63,64,56],"rewards_R":[55,59,65,73,52],"key_presses":["arrowleft","arrowright","arrowleft","arrowright","arrowright"],"response_times":[656,309,380,320,1964],"outcomes":[63,59,63,73,52],"screen_resolution":1,"trial_type":"horizons-trial","trial_index":225,"time_elapsed":1366184,"internal_node_id":"0.0-221.0"},{"horizon":10,"rewards_L":[96,88,81,93,89,97,100,97,89,95],"rewards_R":[51,56,78,49,58,48,64,58,51,57],"key_presses":["arrowleft","arrowleft","arrowright","arrowleft","arrowright","arrowleft","arrowright","arrowleft","arrowleft","arrowleft"],"response_times":[474,464,303,641,393,296,468,264,355,508],"outcomes":[96,88,78,93,58,97,64,97,89,95],"screen_resolution":1,"trial_type":"horizons-trial","trial_index":226,"time_elapsed":1371518,"internal_node_id":"0.0-222.0"},{"horizon":5,"rewards_L":[43,54,51,74,55],"rewards_R":[79,84,79,72,67],"key_presses":["arrowleft","arrowright","arrowleft","arrowleft","arrowright"],"response_times":[628,332,311,460,708],"outcomes":[43,84,51,74,67],"screen_resolution":1,"trial_type":"horizons-trial","trial_index":227,"time_elapsed":1374803,"internal_node_id":"0.0-223.0"},{"horizon":5,"rewards_L":[48,65,70,64,47],"rewards_R":[66,59,61,63,63],"key_presses":["arrowright","arrowleft","arrowright","arrowleft","arrowleft"],"response_times":[487,328,373,1123,1996],"outcomes":[66,65,61,64,47],"screen_resolution":1,"trial_type":"horizons-trial","trial_index":228,"time_elapsed":1380071,"internal_node_id":"0.0-224.0"},{"horizon":10,"rewards_L":[62,59,51,52,56,69,75,59,61,73],"rewards_R":[62,65,58,51,80,65,54,62,53,60],"key_presses":["arrowleft","arrowright","arrowright","arrowleft","arrowright","arrowleft","arrowright","arrowleft","arrowright","arrowright"],"response_times":[940,329,603,356,365,344,523,436,1668,2830],"outcomes":[62,65,58,52,80,69,54,59,53,60],"screen_resolution":1,"trial_type":"horizons-trial","trial_index":229,"time_elapsed":1389198,"internal_node_id":"0.0-225.0"},{"horizon":10,"rewards_L":[34,42,57,58,40,43,47,39,56,41],"rewards_R":[59,56,67,56,49,43,52,50,52,53],"key_presses":["arrowright","arrowright","arrowleft","arrowleft","arrowright","arrowleft","arrowright","arrowleft","arrowright","arrowright"],"response_times":[465,315,360,312,376,485,323,363,1397,1084],"outcomes":[59,56,57,58,49,43,52,39,52,53],"screen_resolution":1,"trial_type":"horizons-trial","trial_index":230,"time_elapsed":1395231,"internal_node_id":"0.0-226.0"},{"horizon":10,"rewards_L":[45,42,42,37,51,41,39,33,48,43],"rewards_R":[20,25,8,6,22,19,27,15,14,6],"key_presses":["arrowright","arrowleft","arrowleft","arrowright","arrowleft","arrowleft","arrowleft","arrowleft","arrowleft","arrowleft"],"response_times":[715,348,501,312,332,436,172,180,160,321],"outcomes":[20,42,42,6,51,41,39,33,48,43],"screen_resolution":1,"trial_type":"horizons-trial","trial_index":231,"time_elapsed":1401081,"internal_node_id":"0.0-227.0"},{"horizon":5,"rewards_L":[59,65,61,55,60],"rewards_R":[33,48,40,42,34],"key_presses":["arrowleft","arrowleft","arrowleft","arrowright","arrowleft"],"response_times":[575,308,677,389,583],"outcomes":[59,65,61,42,60],"screen_resolution":1,"trial_type":"horizons-trial","trial_index":232,"time_elapsed":1404325,"internal_node_id":"0.0-228.0"},{"horizon":10,"rewards_L":[49,38,55,52,47,40,47,44,52,57],"rewards_R":[58,66,59,38,68,64,66,56,52,55],"key_presses":["arrowright","arrowright","arrowright","arrowleft","arrowleft","arrowright","arrowleft","arrowright","arrowright","arrowright"],"response_times":[424,397,359,364,305,275,392,317,1496,2001],"outcomes":[58,66,59,52,47,64,47,56,52,55],"screen_resolution":1,"trial_type":"horizons-trial","trial_index":233,"time_elapsed":1411667,"internal_node_id":"0.0-229.0"},{"horizon":5,"rewards_L":[45,35,55,50,49],"rewards_R":[51,51,61,78,57],"key_presses":["arrowright","arrowleft","arrowleft","arrowright","arrowright"],"response_times":[494,339,468,312,1064],"outcomes":[51,35,55,78,57],"screen_resolution":1,"trial_type":"horizons-trial","trial_index":234,"time_elapsed":1414872,"internal_node_id":"0.0-230.0"},{"horizon":10,"rewards_L":[50,27,50,37,43,55,38,49,27,55],"rewards_R":[61,72,74,79,75,90,64,73,66,64],"key_presses":["arrowleft","arrowright","arrowright","arrowleft","arrowright","arrowleft","arrowright","arrowright","arrowright","arrowright"],"response_times":[588,281,370,288,337,271,301,324,720,580],"outcomes":[50,72,74,37,75,55,64,73,66,64],"screen_resolution":1,"trial_type":"horizons-trial","trial_index":235,"time_elapsed":1419437,"internal_node_id":"0.0-231.0"},{"horizon":5,"rewards_L":[61,53,53,61,66],"rewards_R":[99,92,98,87,87],"key_presses":["arrowright","arrowleft","arrowright","arrowleft","arrowright"],"response_times":[407,336,332,888,512],"outcomes":[99,53,98,61,87],"screen_resolution":1,"trial_type":"horizons-trial","trial_index":236,"time_elapsed":1423001,"internal_node_id":"0.0-232.0"},{"horizon":10,"rewards_L":[27,29,47,24,29,34,28,30,29,16],"rewards_R":[45,31,38,40,38,33,42,38,49,30],"key_presses":["arrowright","arrowright","arrowleft","arrowleft","arrowright","arrowleft","arrowright","arrowleft","arrowright","arrowright"],"response_times":[447,388,288,636,425,679,604,492,332,2192],"outcomes":[45,31,47,24,38,34,42,30,49,30],"screen_resolution":1,"trial_type":"horizons-trial","trial_index":237,"time_elapsed":1430036,"internal_node_id":"0.0-233.0"},{"horizon":5,"rewards_L":[26,48,41,38,30],"rewards_R":[0,8,10,0,15],"key_presses":["arrowleft","arrowright","arrowright","arrowleft","arrowleft"],"response_times":[572,269,679,876,432],"outcomes":[26,8,10,38,30],"screen_resolution":1,"trial_type":"horizons-trial","trial_index":238,"time_elapsed":1433581,"internal_node_id":"0.0-234.0"},{"horizon":5,"rewards_L":[40,39,26,28,31],"rewards_R":[69,69,63,62,67],"key_presses":["arrowleft","arrowright","arrowleft","arrowleft","arrowright"],"response_times":[788,416,365,1000,821],"outcomes":[40,69,26,28,67],"screen_resolution":1,"trial_type":"horizons-trial","trial_index":239,"time_elapsed":1437681,"internal_node_id":"0.0-235.0"},{"horizon":10,"rewards_L":[63,63,65,56,59,43,64,50,51,63],"rewards_R":[49,50,54,39,50,58,46,45,41,61],"key_presses":["arrowright","arrowright","arrowleft","arrowleft","arrowleft","arrowleft","arrowright","arrowleft","arrowright","arrowleft"],"response_times":[503,388,472,452,23945,680,343,528,440,604],"outcomes":[49,50,65,56,59,43,46,50,41,63],"screen_resolution":1,"trial_type":"horizons-trial","trial_index":240,"time_elapsed":1466623,"internal_node_id":"0.0-236.0"},{"horizon":10,"rewards_L":[51,54,64,51,51,67,54,61,60,53],"rewards_R":[44,37,46,42,47,38,17,40,30,35],"key_presses":["arrowleft","arrowright","arrowright","arrowright","arrowleft","arrowright","arrowleft","arrowleft","arrowleft","arrowleft"],"response_times":[463,321,503,345,391,320,383,364,416,348],"outcomes":[51,37,46,42,51,38,54,61,60,53],"screen_resolution":1,"trial_type":"horizons-trial","trial_index":241,"time_elapsed":1471779,"internal_node_id":"0.0-237.0"},{"horizon":5,"rewards_L":[52,84,69,70,63],"rewards_R":[36,29,50,36,52],"key_presses":["arrowleft","arrowleft","arrowright","arrowleft","arrowleft"],"response_times":[6232,365,355,380,420],"outcomes":[52,84,50,70,63],"screen_resolution":1,"trial_type":"horizons-trial","trial_index":242,"time_elapsed":1480331,"internal_node_id":"0.0-238.0"},{"horizon":10,"rewards_L":[84,70,89,71,75,75,92,88,64,74],"rewards_R":[56,36,61,47,61,55,47,75,71,75],"key_presses":["arrowright","arrowleft","arrowright","arrowright","arrowleft","arrowright","arrowleft","arrowleft","arrowleft","arrowleft"],"response_times":[551,344,264,620,357,380,445,387,340,449],"outcomes":[56,70,61,47,75,55,92,88,64,74],"screen_resolution":1,"trial_type":"horizons-trial","trial_index":243,"time_elapsed":1519565,"internal_node_id":"0.0-239.0"},{"horizon":10,"rewards_L":[32,35,41,51,45,34,41,41,42,39],"rewards_R":[43,45,46,53,37,46,54,40,36,54],"key_presses":["arrowright","arrowright","arrowleft","arrowright","arrowright","arrowleft","arrowleft","arrowright","arrowright","arrowright"],"response_times":[400,336,324,316,452,628,516,301,1435,1217],"outcomes":[43,45,41,53,37,34,41,40,36,54],"screen_resolution":1,"trial_type":"horizons-trial","trial_index":244,"time_elapsed":1563145,"internal_node_id":"0.0-240.0"},{"horizon":5,"rewards_L":[56,45,46,64,64],"rewards_R":[50,34,45,60,28],"key_presses":["arrowleft","arrowleft","arrowright","arrowleft","arrowleft"],"response_times":[620,383,321,347,645],"outcomes":[56,45,45,64,64],"screen_resolution":1,"trial_type":"horizons-trial","trial_index":245,"time_elapsed":1732712,"internal_node_id":"0.0-241.0"},{"horizon":5,"rewards_L":[53,47,58,62,71],"rewards_R":[58,58,61,55,48],"key_presses":["arrowleft","arrowright","arrowleft","arrowright","arrowright"],"response_times":[2115,411,285,700,1167],"outcomes":[53,58,58,55,48],"screen_resolution":1,"trial_type":"horizons-trial","trial_index":246,"time_elapsed":1738192,"internal_node_id":"0.0-242.0"},{"horizon":5,"rewards_L":[21,49,44,43,41],"rewards_R":[44,62,57,70,64],"key_presses":["arrowright","arrowleft","