[{"success":true,"timeout":false,"failed_images":[],"failed_audio":[],"failed_video":[],"trial_type":"preload","trial_index":0,"time_elapsed":3,"internal_node_id":"0.0-0.0"},{"success":true,"trial_type":"fullscreen","trial_index":1,"time_elapsed":2140,"internal_node_id":"0.0-1.0"},{"rt":1961,"stimulus":"<p>你将开始实验 実験を開始します<b>Horizons task.</b></p><p>查看说明请按 “1” 键，跳过说明请按 “2” 键。説明を見るには “1” キーを押してください。スキップするには “2” キーを押してください。</p>","response":"1","trial_type":"html-keyboard-response","trial_index":2,"time_elapsed":4103,"internal_node_id":"0.0-2.0"},{"view_history":[{"page_index":0,"viewing_time":1818},{"page_index":1,"viewing_time":3645},{"page_index":2,"viewing_time":4882},{"page_index":3,"viewing_time":14964},{"page_index":4,"viewing_time":4651},{"page_index":5,"viewing_time":2348},{"page_index":6,"viewing_time":485},{"page_index":7,"viewing_time":375},{"page_index":8,"viewing_time":837},{"page_index":7,"viewing_time":1010},{"page_index":6,"viewing_time":1632},{"page_index":7,"viewing_time":3041},{"page_index":8,"viewing_time":1660},{"page_index":9,"viewing_time":2183}],"rt":43530,"trial_type":"instructions","trial_index":3,"time_elapsed":47631,"internal_node_id":"0.0-3.0-0.0"},{"horizon":5,"rewards_L":[44,57,74,72,62],"rewards_R":[31,33,24,39,29],"key_presses":["arrowright","arrowleft","arrowright","arrowright","arrowleft"],"response_times":[471,899,489,575,1719],"outcomes":[31,57,24,39,62],"screen_resolution":1,"phase":"practice","trial_type":"horizons-trial","trial_index":4,"time_elapsed":54854,"internal_node_id":"0.0-3.0-1.0"},{"horizon":10,"rewards_L":[64,50,57,35,52,38,44,61,39,38],"rewards_R":[70,69,76,71,75,58,81,84,57,61],"key_presses":["arrowleft","arrowleft","arrowright","arrowright","arrowright","arrowright","arrowright","arrowright","arrowright","arrowright"],"response_times":[647,335,670,583,788,538,629,632,322,325],"outcomes":[64,50,76,71,75,58,81,84,57,61],"screen_resolution":1,"phase":"practice","trial_type":"horizons-trial","trial_index":5,"time_elapsed":61320,"internal_node_id":"0.0-3.0-2.0"},{"view_history":[{"page_index":0,"viewing_time":761},{"page_index":1,"viewing_time":718},{"page_index":2,"viewing_time":490},{"page_index":3,"viewing_time":486}],"rt":2455,"trial_type":"instructions","trial_index":6,"time_elapsed":63782,"internal_node_id":"0.0-3.0-3.0"},{"responses":["true","false","true"],"num_errors":0,"rt":8780.39999999851,"trial_type":"horizons-comprehension","trial_index":7,"time_elapsed":72565,"internal_node_id":"0.0-3.0-4.0"},{"view_history":[{"page_index":0,"viewing_time":1159},{"page_index":1,"viewing_time":1744}],"rt":2904,"trial_type":"instructions","trial_index":8,"time_elapsed":75475,"internal_node_id":"0.0-4.0"},{"horizon":5,"rewards_L":[62,53,41,54,57],"rewards_R":[44,45,51,40,42],"key_presses":["arrowright","arrowright","arrowleft","arrowleft","arrowleft"],"response_times":[744,465,465,385,913],"outcomes":[44,45,41,54,57],"screen_resolution":1,"trial_type":"horizons-trial","trial_index":9,"time_elapsed":79441,"internal_node_id":"0.0-5.0"},{"horizon":5,"rewards_L":[20,39,38,42,30],"rewards_R":[52,41,43,48,48],"key_presses":["arrowright","arrowleft","arrowleft","arrowright","arrowright"],"response_times":[627,562,443,689,461],"outcomes":[52,39,38,48,48],"screen_resolution":1,"trial_type":"horizons-trial","trial_index":10,"time_elapsed":82753,"internal_node_id":"0.0-6.0"},{"horizon":5,"rewards_L":[24,26,40,26,23],"rewards_R":[35,45,70,36,43],"key_presses":["arrowleft","arrowright","arrowright","arrowleft","arrowright"],"response_times":[716,397,394,880,645],"outcomes":[24,45,70,26,43],"screen_resolution":1,"trial_type":"horizons-trial","trial_index":11,"time_elapsed":86326,"internal_node_id":"0.0-7.0"},{"horizon":10,"rewards_L":[23,39,46,36,28,44,44,32,38,30],"rewards_R":[39,51,55,37,37,31,32,39,36,49],"key_presses":["arrowright","arrowleft","arrowleft","arrowright","arrowright","arrowleft","arrowleft","arrowleft","arrowleft","arrowleft"],"response_times":[545,391,488,511,1742,447,1057,536,315,367],"outcomes":[39,39,46,37,37,44,44,32,38,30],"screen_resolution":1,"trial_type":"horizons-trial","trial_index":12,"time_elapsed":93983,"internal_node_id":"0.0-8.0"},{"horizon":5,"rewards_L":[22,28,28,29,42],"rewards_R":[39,44,41,39,31],"key_presses":["arrowright","arrowright","arrowright","arrowleft","arrowright"],"response_times":[673,493,638,442,1299],"outcomes":[39,44,41,29,31],"screen_resolution":1,"trial_type":"horizons-trial","trial_index":13,"time_elapsed":98240,"internal_node_id":"0.0-9.0"},{"horizon":10,"rewards_L":[63,65,53,63,70,55,79,83,67,71],"rewards_R":[70,53,58,62,69,70,60,67,71,55],"key_presses":["arrowright","arrowleft","arrowright","arrowleft","arrowleft","arrowleft","arrowleft","arrowleft","arrowleft","arrowleft"],"response_times":[669,376,551,613,2456,927,386,235,247,198],"outcomes":[70,65,58,63,70,55,79,83,67,71],"screen_resolution":1,"trial_type":"horizons-trial","trial_index":14,"time_elapsed":105914,"internal_node_id":"0.0-10.0"},{"horizon":10,"rewards_L":[56,60,54,54,42,53,43,51,46,36],"rewards_R":[54,40,44,28,28,48,32,39,42,39],"key_presses":["arrowright","arrowleft","arrowright","arrowright","arrowleft","arrowleft","arrowleft","arrowleft","arrowleft","arrowleft"],"response_times":[591,370,348,494,1401,3226,822,383,200,171],"outcomes":[54,60,44,28,42,53,43,51,46,36],"screen_resolution":1,"trial_type":"horizons-trial","trial_index":15,"time_elapsed":114875,"internal_node_id":"0.0-11.0"},{"horizon":10,"rewards_L":[49,59,36,68,53,63,62,44,61,45],"rewards_R":[48,50,34,34,40,44,26,36,36,35],"key_presses":["arrowleft","arrowleft","arrowleft","arrowright","arrowright","arrowleft","arrowleft","arrowleft","arrowleft","arrowleft"],"response_times":[653,589,391,523,801,3230,317,271,226,173],"outcomes":[49,59,36,34,40,63,62,44,61,45],"screen_resolution":1,"trial_type":"horizons-trial","trial_index":16,"time_elapsed":122684,"internal_node_id":"0.0-12.0"},{"horizon":10,"rewards_L":[49,28,40,37,55,60,39,44,34,37],"rewards_R":[39,42,48,34,41,42,40,51,54,41],"key_presses":["arrowright","arrowleft","arrowright","arrowright","arrowleft","arrowleft","arrowleft","arrowleft","arrowleft","arrowleft"],"response_times":[566,417,456,505,1681,1285,785,250,228,226],"outcomes":[39,28,48,34,55,60,39,44,34,37],"screen_resolution":1,"trial_type":"horizons-trial","trial_index":17,"time_elapsed":130433,"internal_node_id":"0.0-13.0"},{"horizon":10,"rewards_L":[62,53,78,77,57,81,61,65,65,75],"rewards_R":[38,38,45,48,35,36,46,58,46,35],"key_presses":["arrowleft","arrowleft","arrowright","arrowright","arrowleft","arrowleft","arrowleft","arrowleft","arrowleft","arrowleft"],"response_times":[470,470,627,391,1137,549,279,244,202,175],"outcomes":[62,53,45,48,57,81,61,65,65,75],"screen_resolution":1,"trial_type":"horizons-trial","trial_index":18,"time_elapsed":135531,"internal_node_id":"0.0-14.0"},{"horizon":5,"rewards_L":[63,64,84,70,59],"rewards_R":[43,55,37,51,43],"key_presses":["arrowright","arrowleft","arrowleft","arrowright","arrowleft"],"response_times":[611,464,1350,1028,556],"outcomes":[43,64,84,51,59],"screen_resolution":1,"trial_type":"horizons-trial","trial_index":19,"time_elapsed":140756,"internal_node_id":"0.0-15.0"},{"horizon":10,"rewards_L":[38,42,41,27,35,36,38,38,40,46],"rewards_R":[38,47,40,62,56,47,50,39,45,44],"key_presses":["arrowleft","arrowright","arrowleft","arrowleft","arrowright","arrowright","arrowright","arrowright","arrowright","arrowright"],"response_times":[741,437,408,491,500,2242,251,204,198,211],"outcomes":[38,47,41,27,56,47,50,39,45,44],"screen_resolution":1,"trial_type":"horizons-trial","trial_index":20,"time_elapsed":147256,"internal_node_id":"0.0-16.0"},{"horizon":10,"rewards_L":[35,48,42,50,35,26,37,28,13,33],"rewards_R":[35,51,51,49,52,34,44,31,49,53],"key_presses":["arrowleft","arrowright","arrowright","arrowleft","arrowleft","arrowright","arrowright","arrowright","arrowright","arrowleft"],"response_times":[707,444,474,359,779,785,244,229,222,861],"outcomes":[35,51,51,50,35,34,44,31,49,33],"screen_resolution":1,"trial_type":"horizons-trial","trial_index":21,"time_elapsed":153186,"internal_node_id":"0.0-17.0"},{"horizon":10,"rewards_L":[53,37,41,45,28,35,16,38,46,25],"rewards_R":[50,63,47,62,59,55,62,54,62,56],"key_presses":["arrowright","arrowleft","arrowleft","arrowleft","arrowright","arrowright","arrowleft","arrowright","arrowright","arrowright"],"response_times":[512,396,517,856,1317,622,638,500,202,172],"outcomes":[50,37,41,45,59,55,16,54,62,56],"screen_resolution":1,"trial_type":"horizons-trial","trial_index":22,"time_elapsed":159682,"internal_node_id":"0.0-18.0"},{"horizon":10,"rewards_L":[58,21,36,25,36,32,36,46,49,31],"rewards_R":[40,46,51,47,34,34,57,54,36,54],"key_presses":["arrowleft","arrowright","arrowleft","arrowright","arrowleft","arrowright","arrowleft","arrowright","arrowright","arrowright"],"response_times":[796,409,437,516,920,836,4932,766,218,188],"outcomes":[58,46,36,47,36,34,36,54,36,54],"screen_resolution":1,"trial_type":"horizons-trial","trial_index":23,"time_elapsed":170282,"internal_node_id":"0.0-19.0"},{"horizon":10,"rewards_L":[56,53,60,65,55,67,59,74,41,49],"rewards_R":[67,63,72,51,54,75,67,57,63,60],"key_presses":["arrowright","arrowright","arrowright","arrowleft","arrowleft","arrowleft","arrowleft","arrowright","arrowright","arrowright"],"response_times":[479,482,318,538,349,425,1137,1080,208,208],"outcomes":[67,63,72,65,55,67,59,57,63,60],"screen_resolution":1,"trial_type":"horizons-trial","trial_index":24,"time_elapsed":176399,"internal_node_id":"0.0-20.0"},{"horizon":10,"rewards_L":[42,64,65,49,41,45,49,49,44,49],"rewards_R":[37,51,30,45,36,34,44,43,39,32],"key_presses":["arrowleft","arrowleft","arrowright","arrowright","arrowright","arrowleft","arrowleft","arrowleft","arrowleft","arrowleft"],"response_times":[623,451,386,347,776,657,277,258,185,203],"outcomes":[42,64,30,45,36,45,49,49,44,49],"screen_resolution":1,"trial_type":"horizons-trial","trial_index":25,"time_elapsed":181277,"internal_node_id":"0.0-21.0"},{"horizon":10,"rewards_L":[63,73,62,54,65,62,70,60,66,75],"rewards_R":[33,37,25,18,27,42,28,20,41,40],"key_presses":["arrowleft","arrowleft","arrowleft","arrowright","arrowright","arrowleft","arrowleft","arrowleft","arrowleft","arrowleft"],"response_times":[533,625,779,435,1044,515,762,218,213,198],"outcomes":[63,73,62,18,27,62,70,60,66,75],"screen_resolution":1,"trial_type":"horizons-trial","trial_index":26,"time_elapsed":187150,"internal_node_id":"0.0-22.0"},{"horizon":10,"rewards_L":[46,40,36,42,35,30,39,48,53,58],"rewards_R":[38,49,41,44,46,46,51,47,28,22],"key_presses":["arrowright","arrowleft","arrowright","arrowleft","arrowright","arrowleft","arrowright","arrowright","arrowright","arrowright"],"response_times":[608,404,396,334,2249,919,678,202,240,181],"outcomes":[38,40,41,42,46,30,51,47,28,22],"screen_resolution":1,"trial_type":"horizons-trial","trial_index":27,"time_elapsed":194252,"internal_node_id":"0.0-23.0"},{"horizon":5,"rewards_L":[27,40,39,33,48],"rewards_R":[55,52,64,53,69],"key_presses":["arrowright","arrowright","arrowright","arrowleft","arrowright"],"response_times":[624,553,575,656,1220],"outcomes":[55,52,64,33,69],"screen_resolution":1,"trial_type":"horizons-trial","trial_index":28,"time_elapsed":198445,"internal_node_id":"0.0-24.0"},{"horizon":10,"rewards_L":[55,64,52,56,56,68,47,60,61,67],"rewards_R":[74,66,74,76,67,73,73,77,73,72],"key_presses":["arrowright","arrowright","arrowleft","arrowright","arrowleft","arrowleft","arrowright","arrowright","arrowright","arrowright"],"response_times":[448,460,445,465,636,2589,1536,295,231,250],"outcomes":[74,66,52,76,56,68,73,77,73,72],"screen_resolution":1,"trial_type":"horizons-trial","trial_index":29,"time_elapsed":206631,"internal_node_id":"0.0-25.0"},{"horizon":5,"rewards_L":[21,22,13,26,15],"rewards_R":[46,42,32,29,46],"key_presses":["arrowright","arrowright","arrowright","arrowleft","arrowright"],"response_times":[524,380,457,452,962],"outcomes":[46,42,32,26,46],"screen_resolution":1,"trial_type":"horizons-trial","trial_index":30,"time_elapsed":210236,"internal_node_id":"0.0-26.0"},{"horizon":10,"rewards_L":[51,57,43,50,39,53,51,56,36,46],"rewards_R":[43,39,36,37,32,34,53,37,42,58],"key_presses":["arrowleft","arrowleft","arrowright","arrowleft","arrowright","arrowleft","arrowleft","arrowleft","arrowleft","arrowleft"],"response_times":[912,526,422,750,1409,583,293,261,244,215],"outcomes":[51,57,36,50,32,53,51,56,36,46],"screen_resolution":1,"trial_type":"horizons-trial","trial_index":31,"time_elapsed":216665,"internal_node_id":"0.0-27.0"},{"horizon":5,"rewards_L":[50,46,44,44,25],"rewards_R":[50,53,56,58,72],"key_presses":["arrowright","arrowright","arrowleft","arrowleft","arrowright"],"response_times":[515,475,326,528,1123],"outcomes":[50,53,44,44,72],"screen_resolution":1,"trial_type":"horizons-trial","trial_index":32,"time_elapsed":220408,"internal_node_id":"0.0-28.0"},{"horizon":5,"rewards_L":[36,33,48,55,46],"rewards_R":[15,2,15,6,23],"key_presses":["arrowright","arrowleft","arrowleft","arrowright","arrowleft"],"response_times":[447,455,525,437,1183],"outcomes":[15,33,48,6,46],"screen_resolution":1,"trial_type":"horizons-trial","trial_index":33,"time_elapsed":224288,"internal_node_id":"0.0-29.0"},{"horizon":10,"rewards_L":[11,24,31,25,13,19,22,43,7,26],"rewards_R":[41,40,59,33,40,38,59,34,32,52],"key_presses":["arrowleft","arrowright","arrowright","arrowleft","arrowleft","arrowright","arrowright","arrowright","arrowright","arrowright"],"response_times":[518,340,765,423,1263,675,364,254,224,212],"outcomes":[11,40,59,25,13,38,59,34,32,52],"screen_resolution":1,"trial_type":"horizons-trial","trial_index":34,"time_elapsed":229984,"internal_node_id":"0.0-30.0"},{"horizon":10,"rewards_L":[39,18,24,33,38,17,24,46,39,43],"rewards_R":[35,44,43,49,27,46,44,45,36,40],"key_presses":["arrowright","arrowright","arrowright","arrowleft","arrowleft","arrowright","arrowright","arrowright","arrowright","arrowright"],"response_times":[361,372,246,484,491,2117,637,271,262,283],"outcomes":[35,44,43,33,38,46,44,45,36,40],"screen_resolution":1,"trial_type":"horizons-trial","trial_index":35,"time_elapsed":236290,"internal_node_id":"0.0-31.0"},{"horizon":5,"rewards_L":[64,63,55,43,54],"rewards_R":[49,56,55,62,67],"key_presses":["arrowright","arrowright","arrowleft","arrowleft","arrowright"],"response_times":[442,756,431,405,2036],"outcomes":[49,56,55,43,67],"screen_resolution":1,"trial_type":"horizons-trial","trial_index":36,"time_elapsed":240902,"internal_node_id":"0.0-32.0"},{"horizon":10,"rewards_L":[30,36,39,39,36,43,50,36,34,33],"rewards_R":[46,36,48,31,29,39,27,43,29,32],"key_presses":["arrowleft","arrowright","arrowright","arrowleft","arrowleft","arrowright","arrowright","arrowright","arrowright","arrowright"],"response_times":[685,302,528,2831,1056,622,1986,218,186,828],"outcomes":[30,36,48,39,36,39,27,43,29,32],"screen_resolution":1,"trial_type":"horizons-trial","trial_index":37,"time_elapsed":250854,"internal_node_id":"0.0-33.0"},{"horizon":5,"rewards_L":[43,42,38,31,39],"rewards_R":[12,28,20,18,9],"key_presses":["arrowleft","arrowright","arrowleft","arrowright","arrowleft"],"response_times":[661,319,420,350,888],"outcomes":[43,28,38,18,39],"screen_resolution":1,"trial_type":"horizons-trial","trial_index":38,"time_elapsed":254026,"internal_node_id":"0.0-34.0"},{"horizon":5,"rewards_L":[37,37,48,44,61],"rewards_R":[31,35,28,34,36],"key_presses":["arrowright","arrowleft","arrowleft","arrowright","arrowleft"],"response_times":[516,412,537,703,5545],"outcomes":[31,37,48,34,61],"screen_resolution":1,"trial_type":"horizons-trial","trial_index":39,"time_elapsed":262352,"internal_node_id":"0.0-35.0"},{"horizon":10,"rewards_L":[45,55,47,43,38,36,28,38,44,34],"rewards_R":[66,64,60,38,74,76,60,66,48,57],"key_presses":["arrowright","arrowright","arrowright","arrowleft","arrowleft","arrowright","arrowright","arrowright","arrowright","arrowright"],"response_times":[579,464,425,729,1056,1662,487,259,242,207],"outcomes":[66,64,60,43,38,76,60,66,48,57],"screen_resolution":1,"trial_type":"horizons-trial","trial_index":40,"time_elapsed":269545,"internal_node_id":"0.0-36.0"},{"horizon":10,"rewards_L":[27,39,43,32,20,43,32,44,35,32],"rewards_R":[10,9,9,12,0,4,1,2,17,9],"key_presses":["arrowright","arrowleft","arrowright","arrowleft","arrowleft","arrowleft","arrowleft","arrowleft","arrowleft","arrowleft"],"response_times":[393,532,402,396,407,301,211,219,191,202],"outcomes":[10,39,9,32,20,43,32,44,35,32],"screen_resolution":1,"trial_type":"horizons-trial","trial_index":41,"time_elapsed":273644,"internal_node_id":"0.0-37.0"},{"horizon":10,"rewards_L":[40,34,45,43,49,53,38,50,32,42],"rewards_R":[28,36,33,42,24,36,43,9,23,30],"key_presses":["arrowright","arrowleft","arrowright","arrowleft","arrowright","arrowleft","arrowleft","arrowleft","arrowleft","arrowleft"],"response_times":[451,618,330,416,3594,629,296,224,238,232],"outcomes":[28,34,33,43,24,53,38,50,32,42],"screen_resolution":1,"trial_type":"horizons-trial","trial_index":42,"time_elapsed":281599,"internal_node_id":"0.0-38.0"},{"horizon":10,"rewards_L":[39,46,41,36,35,37,41,30,49,39],"rewards_R":[51,44,40,32,37,37,44,53,34,51],"key_presses":["arrowright","arrowleft","arrowleft","arrowleft","arrowright","arrowright","arrowleft","arrowright","arrowright","arrowright"],"response_times":[446,378,604,1046,1065,1402,1556,681,228,186],"outcomes":[51,46,41,36,37,37,41,53,34,51],"screen_resolution":1,"trial_type":"horizons-trial","trial_index":43,"time_elapsed":290026,"internal_node_id":"0.0-39.0"},{"horizon":10,"rewards_L":[37,33,44,41,58,49,39,45,50,34],"rewards_R":[25,34,37,40,38,40,36,49,34,36],"key_presses":["arrowleft","arrowright","arrowright","arrowright","arrowleft","arrowleft","arrowright","arrowleft","arrowleft","arrowleft"],"response_times":[693,251,456,551,473,944,1240,528,241,199],"outcomes":[37,34,37,40,58,49,36,45,50,34],"screen_resolution":1,"trial_type":"horizons-trial","trial_index":44,"time_elapsed":296358,"internal_node_id":"0.0-40.0"},{"horizon":5,"rewards_L":[79,80,86,90,87],"rewards_R":[52,75,55,61,59],"key_presses":["arrowleft","arrowright","arrowleft","arrowright","arrowleft"],"response_times":[727,345,410,556,794],"outcomes":[79,75,86,61,87],"screen_resolution":1,"trial_type":"horizons-trial","trial_index":45,"time_elapsed":300164,"internal_node_id":"0.0-41.0"},{"horizon":10,"rewards_L":[46,45,40,44,44,33,38,34,51,34],"rewards_R":[48,56,52,58,61,49,59,59,42,49],"key_presses":["arrowright","arrowleft","arrowright","arrowleft","arrowleft","arrowright","arrowright","arrowright","arrowright","arrowright"],"response_times":[483,333,323,496,1165,490,1199,191,169,174],"outcomes":[48,45,52,44,44,49,59,59,42,49],"screen_resolution":1,"trial_type":"horizons-trial","trial_index":46,"time_elapsed":306076,"internal_node_id":"0.0-42.0"},{"horizon":10,"rewards_L":[70,85,84,83,69,79,91,77,83,93],"rewards_R":[54,73,61,58,63,60,66,57,56,66],"key_presses":["arrowleft","arrowright","arrowright","arrowleft","arrowleft","arrowleft","arrowleft","arrowleft","arrowleft","arrowleft"],"response_times":[516,289,477,358,2471,1814,235,172,208,185],"outcomes":[70,73,61,83,69,79,91,77,83,93],"screen_resolution":1,"trial_type":"horizons-trial","trial_index":47,"time_elapsed":313379,"internal_node_id":"0.0-43.0"},{"horizon":5,"rewards_L":[57,60,61,80,48],"rewards_R":[57,65,57,75,60],"key_presses":["arrowleft","arrowright","arrowright","arrowleft","arrowleft"],"response_times":[510,287,549,1134,839],"outcomes":[57,65,57,80,48],"screen_resolution":1,"trial_type":"horizons-trial","trial_index":48,"time_elapsed":317569,"internal_node_id":"0.0-44.0"},{"horizon":5,"rewards_L":[40,34,32,41,45],"rewards_R":[35,40,40,43,36],"key_presses":["arrowleft","arrowleft","arrowright","arrowleft","arrowleft"],"response_times":[517,803,466,952,1251],"outcomes":[40,34,40,41,45],"screen_resolution":1,"trial_type":"horizons-trial","trial_index":49,"time_elapsed":322168,"internal_node_id":"0.0-45.0"},{"horizon":5,"rewards_L":[56,55,52,35,47],"rewards_R":[27,36,24,36,48],"key_presses":["arrowright","arrowleft","arrowright","arrowleft","arrowleft"],"response_times":[577,458,525,535,1150],"outcomes":[27,55,24,35,47],"screen_resolution":1,"trial_type":"horizons-trial","trial_index":50,"time_elapsed":326207,"internal_node_id":"0.0-46.0"},{"horizon":10,"rewards_L":[66,54,63,64,61,51,65,50,63,63],"rewards_R":[79,69,74,86,71,86,67,72,77,73],"key_presses":["arrowright","arrowright","arrowleft","arrowright","arrowleft","arrowright","arrowright","arrowright","arrowright","arrowright"],"response_times":[664,474,366,441,381,3449,247,205,197,244],"outcomes":[79,69,63,86,61,86,67,72,77,73],"screen_resolution":1,"trial_type":"horizons-trial","trial_index":51,"time_elapsed":333565,"internal_node_id":"0.0-47.0"},{"horizon":5,"rewards_L":[29,35,28,52,30],"rewards_R":[70,64,62,52,73],"key_presses":["arrowright","arrowleft","arrowleft","arrowleft","arrowright"],"response_times":[444,391,526,677,435],"outcomes":[70,35,28,52,73],"screen_resolution":1,"trial_type":"horizons-trial","trial_index":52,"time_elapsed":336614,"internal_node_id":"0.0-48.0"},{"horizon":10,"rewards_L":[34,40,33,19,24,30,27,28,32,35],"rewards_R":[43,44,36,38,52,53,45,39,31,26],"key_presses":["arrowright","arrowleft","arrowright","arrowleft","arrowleft","arrowright","arrowright","arrowright","arrowright","arrowright"],"response_times":[576,356,675,1875,1123,1381,495,346,339,319],"outcomes":[43,40,36,19,24,53,45,39,31,26],"screen_resolution":1,"trial_type":"horizons-trial","trial_index":53,"time_elapsed":344940,"internal_node_id":"0.0-49.0"},{"horizon":10,"rewards_L":[42,34,40,44,55,49,54,31,56,55],"rewards_R":[36,52,42,43,42,51,32,36,41,30],"key_presses":["arrowleft","arrowright","arrowleft","arrowright","arrowleft","arrowleft","arrowleft","arrowleft","arrowleft","arrowleft"],"response_times":[726,380,333,411,854,1155,2601,518,336,247],"outcomes":[42,52,40,43,55,49,54,31,56,55],"screen_resolution":1,"trial_type":"horizons-trial","trial_index":54,"time_elapsed":353252,"internal_node_id":"0.0-50.0"},{"horizon":10,"rewards_L":[35,50,48,46,48,53,54,33,50,45],"rewards_R":[44,44,47,49,55,40,34,32,29,42],"key_presses":["arrowright","arrowright","arrowleft","arrowleft","arrowleft","arrowright","arrowleft","arrowleft","arrowleft","arrowleft"],"response_times":[911,453,472,467,1404,607,671,301,258,225],"outcomes":[44,44,48,46,48,40,54,33,50,45],"screen_resolution":1,"trial_type":"horizons-trial","trial_index":55,"time_elapsed":359923,"internal_node_id":"0.0-51.0"},{"horizon":5,"rewards_L":[82,90,83,76,91],"rewards_R":[68,56,52,68,65],"key_presses":["arrowright","arrowleft","arrowleft","arrowright","arrowleft"],"response_times":[571,344,476,984,500],"outcomes":[68,90,83,68,91],"screen_resolution":1,"trial_type":"horizons-trial","trial_index":56,"time_elapsed":363759,"internal_node_id":"0.0-52.0"},{"horizon":5,"rewards_L":[71,68,63,45,48],"rewards_R":[59,45,72,69,55],"key_presses":["arrowright","arrowright","arrowleft","arrowleft","arrowleft"],"response_times":[438,548,452,1342,1827],"outcomes":[59,45,63,45,48],"screen_resolution":1,"trial_type":"horizons-trial","trial_index":57,"time_elapsed":369227,"internal_node_id":"0.0-53.0"},{"horizon":5,"rewards_L":[49,46,32,36,29],"rewards_R":[75,71,59,84,60],"key_presses":["arrowleft","arrowright","arrowleft","arrowright","arrowright"],"response_times":[571,348,365,598,773],"outcomes":[49,71,32,84,60],"screen_resolution":1,"trial_type":"horizons-trial","trial_index":58,"time_elapsed":372761,"internal_node_id":"0.0-54.0"},{"horizon":5,"rewards_L":[59,67,67,60,50],"rewards_R":[36,61,39,30,45],"key_presses":["arrowleft","arrowright","arrowright","arrowright","arrowleft"],"response_times":[766,386,499,1358,1773],"outcomes":[59,61,39,30,50],"screen_resolution":1,"trial_type":"horizons-trial","trial_index":59,"time_elapsed":378471,"internal_node_id":"0.0-55.0"},{"horizon":10,"rewards_L":[75,67,63,55,51,62,41,55,52,57],"rewards_R":[37,38,48,26,37,12,54,46,31,26],"key_presses":["arrowleft","arrowright","arrowleft","arrowright","arrowleft","arrowright","arrowleft","arrowleft","arrowleft","arrowleft"],"response_times":[615,321,377,381,1755,994,500,229,191,166],"outcomes":[75,38,63,26,51,12,41,55,52,57],"screen_resolution":1,"trial_type":"horizons-trial","trial_index":60,"time_elapsed":384912,"internal_node_id":"0.0-56.0"},{"horizon":10,"rewards_L":[22,7,18,20,20,23,17,18,16,14],"rewards_R":[29,47,37,34,57,37,20,28,23,48],"key_presses":["arrowright","arrowleft","arrowleft","arrowleft","arrowright","arrowright","arrowright","arrowright","arrowright","arrowright"],"response_times":[472,339,719,749,1884,958,363,186,200,175],"outcomes":[29,7,18,20,57,37,20,28,23,48],"screen_resolution":1,"trial_type":"horizons-trial","trial_index":61,"time_elapsed":391675,"internal_node_id":"0.0-57.0"},{"horizon":5,"rewards_L":[63,55,55,51,54],"rewards_R":[51,45,39,43,54],"key_presses":["arrowleft","arrowright","arrowright","arrowright","arrowleft"],"response_times":[605,300,457,456,1623],"outcomes":[63,45,39,43,54],"screen_resolution":1,"trial_type":"horizons-trial","trial_index":62,"time_elapsed":396018,"internal_node_id":"0.0-58.0"},{"horizon":10,"rewards_L":[29,30,22,31,32,39,29,32,33,29],"rewards_R":[49,38,25,41,36,38,41,46,36,43],"key_presses":["arrowleft","arrowright","arrowleft","arrowright","arrowright","arrowright","arrowright","arrowright","arrowright","arrowright"],"response_times":[551,380,369,425,1934,1137,650,795,462,401],"outcomes":[29,38,22,41,36,38,41,46,36,43],"screen_resolution":1,"trial_type":"horizons-trial","trial_index":63,"time_elapsed":403777,"internal_node_id":"0.0-59.0"},{"horizon":10,"rewards_L":[63,73,71,75,56,58,69,74,61,53],"rewards_R":[52,56,57,51,60,66,59,54,65,61],"key_presses":["arrowright","arrowleft","arrowright","arrowright","arrowleft","arrowleft","arrowleft","arrowleft","arrowleft","arrowleft"],"response_times":[392,402,350,882,576,1530,672,661,491,772],"outcomes":[52,73,57,51,56,58,69,74,61,53],"screen_resolution":1,"trial_type":"horizons-trial","trial_index":64,"time_elapsed":411594,"internal_node_id":"0.0-60.0"},{"horizon":10,"rewards_L":[49,29,40,24,48,49,43,48,30,45],"rewards_R":[24,21,49,29,38,32,38,27,23,15],"key_presses":["arrowleft","arrowleft","arrowright","arrowright","arrowright","arrowleft","arrowleft","arrowleft","arrowleft","arrowleft"],"response_times":[458,428,471,431,1342,418,880,552,259,318],"outcomes":[49,29,49,29,38,49,43,48,30,45],"screen_resolution":1,"trial_type":"horizons-trial","trial_index":65,"time_elapsed":417707,"internal_node_id":"0.0-61.0"},{"horizon":5,"rewards_L":[54,37,49,54,48],"rewards_R":[65,72,50,50,60],"key_presses":["arrowright","arrowright","arrowright","arrowleft","arrowright"],"response_times":[589,469,533,367,1703],"outcomes":[65,72,50,54,60],"screen_resolution":1,"trial_type":"horizons-trial","trial_index":66,"time_elapsed":421940,"internal_node_id":"0.0-62.0"},{"horizon":10,"rewards_L":[36,32,37,28,20,30,10,30,31,10],"rewards_R":[50,45,47,24,45,47,37,49,34,37],"key_presses":["arrowright","arrowleft","arrowleft","arrowleft","arrowright","arrowleft","arrowright","arrowright","arrowright","arrowright"],"response_times":[488,300,671,646,382,1232,468,254,250,221],"outcomes":[50,32,37,28,45,30,37,49,34,37],"screen_resolution":1,"trial_type":"horizons-trial","trial_index":67,"time_elapsed":428067,"internal_node_id":"0.0-63.0"},{"horizon":10,"rewards_L":[35,23,28,25,21,35,20,12,24,31],"rewards_R":[37,30,17,53,45,38,47,39,36,19],"key_presses":["arrowleft","arrowleft","arrowright","arrowright","arrowright","arrowright","arrowright","arrowright","arrowright","arrowright"],"response_times":[721,716,726,680,6841,1548,1072,903,416,288],"outcomes":[35,23,17,53,45,38,47,39,36,19],"screen_resolution":1,"trial_type":"horizons-trial","trial_index":68,"time_elapsed":442837,"internal_node_id":"0.0-64.0"},{"horizon":5,"rewards_L":[23,20,23,21,34],"rewards_R":[32,47,47,45,43],"key_presses":["arrowright","arrowleft","arrowright","arrowleft","arrowright"],"response_times":[507,361,399,525,620],"outcomes":[32,20,47,21,43],"screen_resolution":1,"trial_type":"horizons-trial","trial_index":69,"time_elapsed":446396,"internal_node_id":"0.0-65.0"},{"horizon":5,"rewards_L":[57,67,54,69,57],"rewards_R":[63,60,52,50,60],"key_presses":["arrowleft","arrowleft","arrowright","arrowleft","arrowleft"],"response_times":[586,400,389,469,1388],"outcomes":[57,67,52,69,57],"screen_resolution":1,"trial_type":"horizons-trial","trial_index":70,"time_elapsed":450638,"internal_node_id":"0.0-66.0"},{"horizon":5,"rewards_L":[50,41,41,59,57],"rewards_R":[50,50,29,46,37],"key_presses":["arrowleft","arrowright","arrowleft","arrowright","arrowright"],"response_times":[457,498,480,829,803],"outcomes":[50,50,41,46,37],"screen_resolution":1,"trial_type":"horizons-trial","trial_index":71,"time_elapsed":454561,"internal_node_id":"0.0-67.0"},{"horizon":10,"rewards_L":[59,59,56,61,59,59,65,48,48,42],"rewards_R":[41,41,51,48,45,49,31,41,41,46],"key_presses":["arrowleft","arrowleft","arrowright","arrowleft","arrowright","arrowleft","arrowleft","arrowleft","arrowleft","arrowleft"],"response_times":[553,604,351,504,5330,728,321,616,259,212],"outcomes":[59,59,51,61,45,59,65,48,48,42],"screen_resolution":1,"trial_type":"horizons-trial","trial_index":72,"time_elapsed":465107,"internal_node_id":"0.0-68.0"},{"horizon":10,"rewards_L":[42,45,28,19,20,33,39,16,42,16],"rewards_R":[41,40,43,39,37,51,36,36,39,36],"key_presses":["arrowright","arrowright","arrowright","arrowleft","arrowright","arrowleft","arrowright","arrowright","arrowright","arrowright"],"response_times":[821,442,589,713,1031,734,1394,233,270,935],"outcomes":[41,40,43,19,37,33,36,36,39,36],"screen_resolution":1,"trial_type":"horizons-trial","trial_index":73,"time_elapsed":472779,"internal_node_id":"0.0-69.0"},{"horizon":10,"rewards_L":[67,65,57,73,60,57,62,58,48,63],"rewards_R":[61,51,49,48,47,47,54,58,53,49],"key_presses":["arrowleft","arrowright","arrowright","arrowright","arrowleft","arrowleft","arrowleft","arrowleft","arrowleft","arrowleft"],"response_times":[690,362,508,530,581,748,535,510,459,438],"outcomes":[67,51,49,48,60,57,62,58,48,63],"screen_resolution":1,"trial_type":"horizons-trial","trial_index":74,"time_elapsed":478931,"internal_node_id":"0.0-70.0"},{"horizon":10,"rewards_L":[65,70,66,58,74,67,71,57,55,60],"rewards_R":[58,61,51,63,60,50,38,65,68,65],"key_presses":["arrowleft","arrowleft","arrowleft","arrowright","arrowright","arrowleft","arrowleft","arrowleft","arrowleft","arrowright"],"response_times":[436,420,491,441,432,1758,804,447,317,2974],"outcomes":[65,70,66,63,60,67,71,57,55,65],"screen_resolution":1,"trial_type":"horizons-trial","trial_index":75,"time_elapsed":488211,"internal_node_id":"0.0-71.0"},{"horizon":10,"rewards_L":[68,57,70,69,43,46,62,67,70,50],"rewards_R":[41,55,66,52,59,55,52,54,56,47],"key_presses":["arrowleft","arrowright","arrowleft","arrowright","arrowleft","arrowright","arrowright","arrowright","arrowright","arrowright"],"response_times":[538,503,473,611,1991,925,1278,484,2099,437],"outcomes":[68,55,70,52,43,55,52,54,56,47],"screen_resolution":1,"trial_type":"horizons-trial","trial_index":76,"time_elapsed":498201,"internal_node_id":"0.0-72.0"},{"horizon":10,"rewards_L":[45,49,49,38,41,51,40,41,54,51],"rewards_R":[66,56,53,62,64,47,62,58,70,59],"key_presses":["arrowright","arrowleft","arrowleft","arrowleft","arrowright","arrowright","arrowright","arrowright","arrowright","arrowright"],"response_times":[431,411,495,667,1604,691,562,1657,281,390],"outcomes":[66,49,49,38,64,47,62,58,70,59],"screen_resolution":1,"trial_type":"horizons-trial","trial_index":77,"time_elapsed":506165,"internal_node_id":"0.0-73.0"},{"horizon":5,"rewards_L":[21,32,54,25,32],"rewards_R":[59,60,81,59,60],"key_presses":["arrowright","arrowright","arrowright","arrowleft","arrowright"],"response_times":[424,433,450,519,777],"outcomes":[59,60,81,25,60],"screen_resolution":1,"trial_type":"horizons-trial","trial_index":78,"time_elapsed":509560,"internal_node_id":"0.0-74.0"},{"horizon":5,"rewards_L":[23,24,38,20,26],"rewards_R":[67,43,61,52,50],"key_presses":["arrowleft","arrowright","arrowleft","arrowright","arrowright"],"response_times":[813,394,482,414,733],"outcomes":[23,43,38,52,50],"screen_resolution":1,"trial_type":"horizons-trial","trial_index":79,"time_elapsed":513122,"internal_node_id":"0.0-75.0"},{"horizon":5,"rewards_L":[51,56,61,63,62],"rewards_R":[41,48,56,42,44],"key_presses":["arrowleft","arrowright","arrowright","arrowleft","arrowleft"],"response_times":[609,297,509,644,1030],"outcomes":[51,48,56,63,62],"screen_resolution":1,"trial_type":"horizons-trial","trial_index":80,"time_elapsed":517064,"internal_node_id":"0.0-76.0"},{"horizon":5,"rewards_L":[52,52,65,66,51],"rewards_R":[84,70,60,74,82],"key_presses":["arrowleft","arrowright","arrowleft","arrowright","arrowright"],"response_times":[474,386,340,472,497],"outcomes":[52,70,65,74,82],"screen_resolution":1,"trial_type":"horizons-trial","trial_index":81,"time_elapsed":519971,"internal_node_id":"0.0-77.0"},{"horizon":5,"rewards_L":[37,30,36,47,43],"rewards_R":[37,38,35,34,25],"key_presses":["arrowleft","arrowright","arrowright","arrowright","arrowleft"],"response_times":[550,296,739,669,4152],"outcomes":[37,38,35,34,43],"screen_resolution":1,"trial_type":"horizons-trial","trial_index":82,"time_elapsed":528334,"internal_node_id":"0.0-78.0"},{"horizon":10,"rewards_L":[46,47,42,50,47,39,37,48,39,45],"rewards_R":[40,57,34,39,32,28,36,28,26,33],"key_presses":["arrowleft","arrowleft","arrowleft","arrowright","arrowright","arrowleft","arrowleft","arrowleft","arrowleft","arrowleft"],"response_times":[831,467,392,455,472,1267,1703,511,658,442],"outcomes":[46,47,42,39,32,39,37,48,39,45],"screen_resolution":1,"trial_type":"horizons-trial","trial_index":83,"time_elapsed":536361,"internal_node_id":"0.0-79.0"},{"horizon":5,"rewards_L":[58,39,47,42,43],"rewards_R":[53,42,50,41,60],"key_presses":["arrowright","arrowleft","arrowright","arrowright","arrowright"],"response_times":[498,386,330,700,1229],"outcomes":[53,39,50,41,60],"screen_resolution":1,"trial_type":"horizons-trial","trial_index":84,"time_elapsed":540322,"internal_node_id":"0.0-80.0"},{"horizon":5,"rewards_L":[33,59,47,30,31],"rewards_R":[25,38,55,18,43],"key_presses":["arrowleft","arrowleft","arrowright","arrowright","arrowleft"],"response_times":[708,505,542,423,1361],"outcomes":[33,59,55,18,31],"screen_resolution":1,"trial_type":"horizons-trial","trial_index":85,"time_elapsed":544601,"internal_node_id":"0.0-81.0"},{"horizon":10,"rewards_L":[27,19,21,32,37,18,19,45,36,34],"rewards_R":[58,55,70,80,59,64,45,60,77,66],"key_presses":["arrowright","arrowleft","arrowleft","arrowright","arrowright","arrowright","arrowright","arrowright","arrowright","arrowright"],"response_times":[634,442,491,501,1038,896,573,336,467,257],"outcomes":[58,19,21,80,59,64,45,60,77,66],"screen_resolution":1,"trial_type":"horizons-trial","trial_index":86,"time_elapsed":551160,"internal_node_id":"0.0-82.0"},{"horizon":5,"rewards_L":[56,49,67,80,57],"rewards_R":[57,53,65,61,48],"key_presses":["arrowleft","arrowleft","arrowleft","arrowright","arrowright"],"response_times":[703,452,467,470,3815],"outcomes":[56,49,67,61,48],"screen_resolution":1,"trial_type":"horizons-trial","trial_index":87,"time_elapsed":557866,"internal_node_id":"0.0-83.0"},{"horizon":5,"rewards_L":[44,31,36,46,50],"rewards_R":[39,25,21,34,40],"key_presses":["arrowright","arrowright","arrowleft","arrowleft","arrowleft"],"response_times":[426,413,1468,927,1877],"outcomes":[39,25,36,46,50],"screen_resolution":1,"trial_type":"horizons-trial","trial_index":88,"time_elapsed":563513,"internal_node_id":"0.0-84.0"},{"horizon":5,"rewards_L":[52,34,25,41,41],"rewards_R":[17,19,22,24,27],"key_presses":["arrowleft","arrowleft","arrowleft","arrowright","arrowleft"],"response_times":[520,387,623,517,940],"outcomes":[52,34,25,24,41],"screen_resolution":1,"trial_type":"horizons-trial","trial_index":89,"time_elapsed":567430,"internal_node_id":"0.0-85.0"},{"horizon":5,"rewards_L":[42,48,33,43,48],"rewards_R":[31,18,30,29,26],"key_presses":["arrowleft","arrowright","arrowright","arrowright","arrowleft"],"response_times":[442,509,525,579,549],"outcomes":[42,18,30,29,48],"screen_resolution":1,"trial_type":"horizons-trial","trial_index":90,"time_elapsed":570770,"internal_node_id":"0.0-86.0"},{"horizon":5,"rewards_L":[54,40,49,44,36],"rewards_R":[33,45,36,45,51],"key_presses":["arrowright","arrowleft","arrowright","arrowleft","arrowleft"],"response_times":[684,396,475,1019,692],"outcomes":[33,40,36,44,36],"screen_resolution":1,"trial_type":"horizons-trial","trial_index":91,"time_elapsed":574816,"internal_node_id":"0.0-87.0"},{"horizon":10,"rewards_L":[36,39,35,40,47,30,39,30,41,40],"rewards_R":[86,68,65,80,66,81,54,67,85,82],"key_presses":["arrowright","arrowleft","arrowleft","arrowright","arrowright","arrowright","arrowright","arrowright","arrowright","arrowright"],"response_times":[545,457,486,664,885,413,519,336,293,414],"outcomes":[86,39,35,80,66,81,54,67,85,82],"screen_resolution":1,"trial_type":"horizons-trial","trial_index":92,"time_elapsed":580631,"internal_node_id":"0.0-88.0"},{"horizon":5,"rewards_L":[75,54,64,62,62],"rewards_R":[64,74,80,70,66],"key_presses":["arrowleft","arrowleft","arrowright","arrowright","arrowright"],"response_times":[690,560,411,599,515],"outcomes":[75,54,80,70,66],"screen_resolution":1,"trial_type":"horizons-trial","trial_index":93,"time_elapsed":586011,"internal_node_id":"0.0-89.0"},{"horizon":10,"rewards_L":[31,36,29,38,38,39,31,39,46,40],"rewards_R":[3,28,0,13,19,15,21,3,18,0],"key_presses":["arrowleft","arrowright","arrowright","arrowright","arrowleft","arrowleft","arrowleft","arrowleft","arrowleft","arrowleft"],"response_times":[606,388,455,913,2148,1093,267,223,221,249],"outcomes":[31,28,0,13,38,39,31,39,46,40],"screen_resolution":1,"trial_type":"horizons-trial","trial_index":94,"time_elapsed":593244,"internal_node_id":"0.0-90.0"},{"horizon":5,"rewards_L":[54,64,62,65,70],"rewards_R":[35,51,50,47,53],"key_presses":["arrowleft","arrowleft","arrowleft","arrowright","arrowleft"],"response_times":[533,701,499,559,816],"outcomes":[54,64,62,47,70],"screen_resolution":1,"trial_type":"horizons-trial","trial_index":95,"time_elapsed":597063,"internal_node_id":"0.0-91.0"},{"horizon":5,"rewards_L":[64,60,59,56,44],"rewards_R":[76,82,71,88,70],"key_presses":["arrowright","arrowleft","arrowleft","arrowright","arrowright"],"response_times":[487,423,387,475,836],"outcomes":[76,60,59,88,70],"screen_resolution":1,"trial_type":"horizons-trial","trial_index":96,"time_elapsed":600401,"internal_node_id":"0.0-92.0"},{"horizon":10,"rewards_L":[49,42,43,36,41,41,30,32,19,32],"rewards_R":[26,23,14,23,11,19,26,29,29,6],"key_presses":["arrowleft","arrowleft","arrowleft","arrowright","arrowright","arrowleft","arrowleft","arrowleft","arrowleft","arrowleft"],"response_times":[502,490,458,460,1305,501,356,279,220,234],"outcomes":[49,42,43,23,11,41,30,32,19,32],"screen_resolution":1,"trial_type":"horizons-trial","trial_index":97,"time_elapsed":605781,"internal_node_id":"0.0-93.0"},{"horizon":5,"rewards_L":[45,52,50,56,70],"rewards_R":[48,31,29,40,24],"key_presses":["arrowleft","arrowleft","arrowright","arrowright","arrowleft"],"response_times":[470,376,429,436,1689],"outcomes":[45,52,29,40,70],"screen_resolution":1,"trial_type":"horizons-trial","trial_index":98,"time_elapsed":609976,"internal_node_id":"0.0-94.0"},{"horizon":10,"rewards_L":[43,55,68,59,37,56,54,55,54,51],"rewards_R":[57,60,51,61,63,51,53,51,51,62],"key_presses":["arrowleft","arrowright","arrowright","arrowleft","arrowright","arrowright","arrowright","arrowright","arrowright","arrowright"],"response_times":[480,353,457,1896,4454,576,357,493,453,914],"outcomes":[43,60,51,59,63,51,53,51,51,62],"screen_resolution":1,"trial_type":"horizons-trial","trial_index":99,"time_elapsed":621051,"internal_node_id":"0.0-95.0"},{"horizon":5,"rewards_L":[67,69,80,66,79],"rewards_R":[58,55,56,57,59],"key_presses":["arrowright","arrowleft","arrowright","arrowleft","arrowleft"],"response_times":[455,391,668,894,887],"outcomes":[58,69,56,66,79],"screen_resolution":1,"trial_type":"horizons-trial","trial_index":100,"time_elapsed":626007,"internal_node_id":"0.0-96.0"},{"horizon":5,"rewards_L":[60,58,82,73,67],"rewards_R":[26,42,39,32,24],"key_presses":["arrowleft","arrowright","arrowright","arrowright","arrowleft"],"response_times":[550,361,439,732,2660],"outcomes":[60,42,39,32,67],"screen_resolution":1,"trial_type":"horizons-trial","trial_index":101,"time_elapsed":631463,"internal_node_id":"0.0-97.0"},{"horizon":10,"rewards_L":[34,22,35,41,31,28,24,39,31,44],"rewards_R":[37,72,68,55,59,65,68,62,69,56],"key_presses":["arrowright","arrowright","arrowright","arrowleft","arrowright","arrowright","arrowright","arrowright","arrowright","arrowright"],"response_times":[577,464,400,453,1894,522,413,640,596,365],"outcomes":[37,72,68,41,59,65,68,62,69,56],"screen_resolution":1,"trial_type":"horizons-trial","trial_index":102,"time_elapsed":638527,"internal_node_id":"0.0-98.0"},{"horizon":10,"rewards_L":[48,52,58,55,56,54,77,57,54,60],"rewards_R":[82,81,68,81,85,75,65,66,78,90],"key_presses":["arrowright","arrowleft","arrowleft","arrowright","arrowright","arrowright","arrowright","arrowright","arrowright","arrowright"],"response_times":[430,432,501,618,1084,500,422,415,334,578],"outcomes":[82,52,58,81,85,75,65,66,78,90],"screen_resolution":1,"trial_type":"horizons-trial","trial_index":103,"time_elapsed":644571,"internal_node_id":"0.0-99.0"},{"horizon":5,"rewards_L":[64,52,64,69,58],"rewards_R":[42,42,24,55,44],"key_presses":["arrowright","arrowright","arrowleft","arrowleft","arrowleft"],"response_times":[1982,487,750,522,523],"outcomes":[42,42,64,69,58],"screen_resolution":1,"trial_type":"horizons-trial","trial_index":104,"time_elapsed":649358,"internal_node_id":"0.0-100.0"},{"horizon":10,"rewards_L":[61,53,48,62,47,53,56,52,57,52],"rewards_R":[33,39,34,30,35,38,40,40,48,38],"key_presses":["arrowright","arrowleft","arrowright","arrowright","arrowleft","arrowleft","arrowleft","arrowleft","arrowleft","arrowleft"],"response_times":[602,543,660,898,1159,689,731,408,302,377],"outcomes":[33,53,34,30,47,53,56,52,57,52],"screen_resolution":1,"trial_type":"horizons-trial","trial_index":105,"time_elapsed":656694,"internal_node_id":"0.0-101.0"},{"horizon":10,"rewards_L":[66,65,57,64,56,61,63,52,67,76],"rewards_R":[74,70,82,78,68,77,68,64,78,89],"key_presses":["arrowleft","arrowright","arrowright","arrowleft","arrowright","arrowright","arrowright","arrowright","arrowright","arrowright"],"response_times":[483,537,687,594,1106,1039,457,448,573,443],"outcomes":[66,70,82,64,68,77,68,64,78,89],"screen_resolution":1,"trial_type":"horizons-trial","trial_index":106,"time_elapsed":663979,"internal_node_id":"0.0-102.0"},{"horizon":10,"rewards_L":[58,59,57,50,54,54,61,62,46,74],"rewards_R":[66,80,86,97,84,70,80,71,79,89],"key_presses":["arrowleft","arrowright","arrowleft","arrowleft","arrowright","arrowright","arrowright","arrowright","arrowright","arrowright"],"response_times":[737,405,568,665,1208,809,1959,568,448,351],"outcomes":[58,80,57,50,84,70,80,71,79,89],"screen_resolution":1,"trial_type":"horizons-trial","trial_index":107,"time_elapsed":672432,"internal_node_id":"0.0-103.0"},{"horizon":5,"rewards_L":[100,81,79,84,91],"rewards_R":[64,53,72,52,51],"key_presses":["arrowleft","arrowright","arrowright","arrowleft","arrowleft"],"response_times":[772,404,619,448,581],"outcomes":[100,53,72,84,91],"screen_resolution":1,"trial_type":"horizons-trial","trial_index":108,"time_elapsed":675804,"internal_node_id":"0.0-104.0"},{"horizon":10,"rewards_L":[100,100,84,91,98,81,87,80,90,97],"rewards_R":[68,61,74,60,54,68,64,70,67,65],"key_presses":["arrowright","arrowleft","arrowright","arrowright","arrowleft","arrowleft","arrowleft","arrowleft","arrowleft","arrowleft"],"response_times":[556,508,887,980,584,396,323,270,269,368],"outcomes":[68,100,74,60,98,81,87,80,90,97],"screen_resolution":1,"trial_type":"horizons-trial","trial_index":109,"time_elapsed":681524,"internal_node_id":"0.0-105.0"},{"horizon":10,"rewards_L":[39,46,41,35,45,35,33,42,47,42],"rewards_R":[29,27,18,30,34,34,26,22,40,18],"key_presses":["arrowright","arrowright","arrowleft","arrowleft","arrowleft","arrowleft","arrowleft","arrowleft","arrowleft","arrowleft"],"response_times":[688,650,503,527,4615,887,1034,468,342,480],"outcomes":[29,27,41,35,45,35,33,42,47,42],"screen_resolution":1,"trial_type":"horizons-trial","trial_index":110,"time_elapsed":692290,"internal_node_id":"0.0-106.0"},{"horizon":5,"rewards_L":[31,50,32,40,40],"rewards_R":[68,64,55,70,63],"key_presses":["arrowright","arrowright","arrowleft","arrowright","arrowright"],"response_times":[629,763,371,634,456],"outcomes":[68,64,32,70,63],"screen_resolution":1,"trial_type":"horizons-trial","trial_index":111,"time_elapsed":695927,"internal_node_id":"0.0-107.0"},{"horizon":5,"rewards_L":[79,87,63,74,83],"rewards_R":[63,70,52,61,59],"key_presses":["arrowleft","arrowleft","arrowright","arrowleft","arrowleft"],"response_times":[625,520,434,840,891],"outcomes":[79,87,52,74,83],"screen_resolution":1,"trial_type":"horizons-trial","trial_index":112,"time_elapsed":700057,"internal_node_id":"0.0-108.0"},{"horizon":10,"rewards_L":[62,62,62,71,62,57,55,55,76,66],"rewards_R":[52,62,59,56,38,59,63,48,49,55],"key_presses":["arrowright","arrowleft","arrowright","arrowleft","arrowleft","arrowleft","arrowleft","arrowleft","arrowleft","arrowleft"],"response_times":[1041,403,454,594,656,857,470,622,652,503],"outcomes":[52,62,59,71,62,57,55,55,76,66],"screen_resolution":1,"trial_type":"horizons-trial","trial_index":113,"time_elapsed":707206,"internal_node_id":"0.0-109.0"},{"horizon":5,"rewards_L":[21,33,44,28,39],"rewards_R":[46,35,36,34,50],"key_presses":["arrowleft","arrowright","arrowleft","arrowright","arrowright"],"response_times":[420,409,434,578,6051],"outcomes":[21,35,44,34,50],"screen_resolution":1,"trial_type":"horizons-trial","trial_index":114,"time_elapsed":715837,"internal_node_id":"0.0-110.0"},{"horizon":10,"rewards_L":[37,30,46,36,41,34,39,35,50,40],"rewards_R":[58,59,50,49,70,45,60,51,59,65],"key_presses":["arrowleft","arrowright","arrowleft","arrowleft","arrowright","arrowright","arrowright","arrowright","arrowright","arrowright"],"response_times":[748,371,447,572,1305,333,281,1274,244,253],"outcomes":[37,59,46,36,70,45,60,51,59,65],"screen_resolution":1,"trial_type":"horizons-trial","trial_index":115,"time_elapsed":722325,"internal_node_id":"0.0-111.0"},{"horizon":5,"rewards_L":[55,45,45,38,44],"rewards_R":[60,69,59,51,61],"key_presses":["arrowleft","arrowright","arrowright","arrowleft","arrowright"],"response_times":[533,336,658,489,1704],"outcomes":[55,69,59,38,61],"screen_resolution":1,"trial_type":"horizons-trial","trial_index":116,"time_elapsed":726583,"internal_node_id":"0.0-112.0"},{"horizon":5,"rewards_L":[47,46,53,55,37],"rewards_R":[54,50,50,55,56],"key_presses":["arrowright","arrowright","arrowright","arrowleft","arrowleft"],"response_times":[428,649,459,775,1384],"outcomes":[54,50,50,55,37],"screen_resolution":1,"trial_type":"horizons-trial","trial_index":117,"time_elapsed":731494,"internal_node_id":"0.0-113.0"},{"horizon":5,"rewards_L":[33,38,44,27,31],"rewards_R":[62,47,49,47,58],"key_presses":["arrowright","arrowleft","arrowleft","arrowleft","arrowright"],"response_times":[593,515,539,532,723],"outcomes":[62,38,44,27,58],"screen_resolution":1,"trial_type":"horizons-trial","trial_index":118,"time_elapsed":735224,"internal_node_id":"0.0-114.0"},{"horizon":10,"rewards_L":[51,52,52,60,59,58,59,69,49,64],"rewards_R":[43,41,47,36,52,44,36,45,43,40],"key_presses":["arrowright","arrowright","arrowleft","arrowleft","arrowleft","arrowleft","arrowleft","arrowleft","arrowleft","arrowleft"],"response_times":[430,415,1587,469,636,407,340,378,336,307],"outcomes":[43,41,52,60,59,58,59,69,49,64],"screen_resolution":1,"trial_type":"horizons-trial","trial_index":119,"time_elapsed":741162,"internal_node_id":"0.0-115.0"},{"horizon":5,"rewards_L":[52,53,56,52,58],"rewards_R":[77,75,75,66,75],"key_presses":["arrowleft","arrowright","arrowleft","arrowleft","arrowright"],"response_times":[428,419,447,652,885],"outcomes":[52,75,56,52,75],"screen_resolution":1,"trial_type":"horizons-trial","trial_index":120,"time_elapsed":744577,"internal_node_id":"0.0-116.0"},{"horizon":10,"rewards_L":[80,78,87,66,88,86,82,82,83,86],"rewards_R":[56,55,55,54,53,65,64,62,63,53],"key_presses":["arrowleft","arrowleft","arrowright","arrowleft","arrowleft","arrowleft","arrowleft","arrowleft","arrowleft","arrowleft"],"response_times":[692,522,428,524,644,291,280,267,290,323],"outcomes":[80,78,55,66,88,86,82,82,83,86],"screen_resolution":1,"trial_type":"horizons-trial","trial_index":121,"time_elapsed":749638,"internal_node_id":"0.0-117.0"},{"horizon":10,"rewards_L":[28,46,27,51,43,45,33,44,41,47],"rewards_R":[32,20,20,38,24,29,30,27,18,25],"key_presses":["arrowleft","arrowright","arrowleft","arrowright","arrowright","arrowright","arrowright","arrowright","arrowright","arrowleft"],"response_times":[414,428,385,566,2882,1693,1973,759,520,1126],"outcomes":[28,20,27,38,24,29,30,27,18,47],"screen_resolution":1,"trial_type":"horizons-trial","trial_index":122,"time_elapsed":761032,"internal_node_id":"0.0-118.0"},{"horizon":10,"rewards_L":[70,44,57,48,41,57,65,71,55,43],"rewards_R":[54,56,66,61,53,54,65,56,58,61],"key_presses":["arrowleft","arrowleft","arrowright","arrowright","arrowright","arrowright","arrowright","arrowright","arrowright","arrowright"],"response_times":[527,487,486,1258,4836,3301,433,1169,306,324],"outcomes":[70,44,66,61,53,54,65,56,58,61],"screen_resolution":1,"trial_type":"horizons-trial","trial_index":123,"time_elapsed":775033,"internal_node_id":"0.0-119.0"},{"horizon":10,"rewards_L":[61,57,64,67,45,62,55,61,59,61],"rewards_R":[35,34,33,34,29,36,22,24,25,20],"key_presses":["arrowright","arrowleft","arrowleft","arrowright","arrowleft","arrowleft","arrowleft","arrowleft","arrowleft","arrowleft"],"response_times":[421,616,1017,407,681,295,212,210,192,195],"outcomes":[35,57,64,34,45,62,55,61,59,61],"screen_resolution":1,"trial_type":"horizons-trial","trial_index":124,"time_elapsed":780146,"internal_node_id":"0.0-120.0"},{"horizon":10,"rewards_L":[32,37,24,40,50,41,35,39,49,33],"rewards_R":[65,64,44,68,70,58,62,63,69,49],"key_presses":["arrowleft","arrowright","arrowleft","arrowright","arrowright","arrowright","arrowright","arrowright","arrowright","arrowright"],"response_times":[529,347,379,358,571,259,213,216,222,214],"outcomes":[32,64,24,68,70,58,62,63,69,49],"screen_resolution":1,"trial_type":"horizons-trial","trial_index":125,"time_elapsed":784155,"internal_node_id":"0.0-121.0"},{"horizon":10,"rewards_L":[50,40,43,31,39,58,33,42,36,39],"rewards_R":[41,58,37,49,39,30,36,40,38,40],"key_presses":["arrowleft","arrowright","arrowleft","arrowleft","arrowright","arrowright","arrowright","arrowright","arrowright","arrowright"],"response_times":[561,344,430,570,747,419,7173,753,320,273],"outcomes":[50,58,43,31,39,30,36,40,38,40],"screen_resolution":1,"trial_type":"horizons-trial","trial_index":126,"time_elapsed":796430,"internal_node_id":"0.0-122.0"},{"horizon":5,"rewards_L":[34,52,42,47,41],"rewards_R":[49,58,41,39,53],"key_presses":["arrowleft","arrowleft","arrowright","arrowright","arrowleft"],"response_times":[725,677,443,422,497],"outcomes":[34,52,41,39,41],"screen_resolution":1,"trial_type":"horizons-trial","trial_index":127,"time_elapsed":800081,"internal_node_id":"0.0-123.0"},{"horizon":5,"rewards_L":[71,82,78,71,50],"rewards_R":[37,50,42,47,33],"key_presses":["arrowright","arrowright","arrowleft","arrowleft","arrowleft"],"response_times":[643,781,598,2305,645],"outcomes":[37,50,78,71,50],"screen_resolution":1,"trial_type":"horizons-trial","trial_index":128,"time_elapsed":806056,"internal_node_id":"0.0-124.0"},{"horizon":5,"rewards_L":[24,17,44,39,36],"rewards_R":[16,3,5,24,7],"key_presses":["arrowleft","arrowleft","arrowleft","arrowright","arrowleft"],"response_times":[506,517,864,406,2545],"outcomes":[24,17,44,24,36],"screen_resolution":1,"trial_type":"horizons-trial","trial_index":129,"time_elapsed":811969,"internal_node_id":"0.0-125.0"},{"horizon":5,"rewards_L":[38,31,39,36,51],"rewards_R":[0,5,19,1,0],"key_presses":["arrowleft","arrowright","arrowright","arrowright","arrowleft"],"response_times":[485,371,678,582,568],"outcomes":[38,5,19,1,51],"screen_resolution":1,"trial_type":"horizons-trial","trial_index":130,"time_elapsed":815432,"internal_node_id":"0.0-126.0"},{"horizon":10,"rewards_L":[33,35,37,24,64,42,43,36,39,37],"rewards_R":[31,28,39,33,50,25,36,30,43,35],"key_presses":["arrowright","arrowright","arrowright","arrowleft","arrowright","arrowright","arrowright","arrowright","arrowright","arrowright"],"response_times":[497,420,419,533,1528,592,1331,468,348,457],"outcomes":[31,28,39,24,50,25,36,30,43,35],"screen_resolution":1,"trial_type":"horizons-trial","trial_index":131,"time_elapsed":823017,"internal_node_id":"0.0-127.0"},{"horizon":10,"rewards_L":[40,40,46,47,42,31,27,50,35,38],"rewards_R":[56,57,58,55,71,55,51,49,66,67],"key_presses":["arrowleft","arrowleft","arrowright","arrowright","arrowright","arrowright","arrowright","arrowright","arrowright","arrowright"],"response_times":[501,421,432,446,456,352,324,304,335,368],"outcomes":[40,40,58,55,71,55,51,49,66,67],"screen_resolution":1,"trial_type":"horizons-trial","trial_index":132,"time_elapsed":827760,"internal_node_id":"0.0-128.0"},{"horizon":10,"rewards_L":[10,12,12,7,3,17,8,12,12,14],"rewards_R":[31,45,32,32,41,36,33,32,41,38],"key_presses":["arrowright","arrowright","arrowright","arrowleft","arrowright","arrowright","arrowright","arrowright","arrowright","arrowright"],"response_times":[401,424,519,493,1033,441,352,336,363,487],"outcomes":[31,45,32,7,41,36,33,32,41,38],"screen_resolution":1,"trial_type":"horizons-trial","trial_index":133,"time_elapsed":833471,"internal_node_id":"0.0-129.0"},{"horizon":5,"rewards_L":[23,29,30,27,41],"rewards_R":[40,44,55,39,41],"key_presses":["arrowright","arrowright","arrowright","arrowleft","arrowright"],"response_times":[367,453,505,590,616],"outcomes":[40,44,55,27,41],"screen_resolution":1,"trial_type":"horizons-trial","trial_index":134,"time_elapsed":836818,"internal_node_id":"0.0-130.0"},{"horizon":10,"rewards_L":[68,56,65,54,52,62,66,54,59,53],"rewards_R":[35,36,39,64,55,45,28,43,47,34],"key_presses":["arrowleft","arrowleft","arrowright","arrowleft","arrowleft","arrowleft","arrowleft","arrowleft","arrowleft","arrowleft"],"response_times":[657,772,484,2385,881,1075,288,290,336,414],"outcomes":[68,56,39,54,52,62,66,54,59,53],"screen_resolution":1,"trial_type":"horizons-trial","trial_index":135,"time_elapsed":844957,"internal_node_id":"0.0-131.0"},{"horizon":10,"rewards_L":[54,72,61,38,61,52,55,65,71,55],"rewards_R":[82,86,83,88,81,94,83,84,96,95],"key_presses":["arrowleft","arrowright","arrowleft","arrowleft","arrowright","arrowright","arrowright","arrowright","arrowright","arrowright"],"response_times":[567,365,435,2573,1335,796,248,277,266,321],"outcomes":[54,86,61,38,81,94,83,84,96,95],"screen_resolution":1,"trial_type":"horizons-trial","trial_index":136,"time_elapsed":852831,"internal_node_id":"0.0-132.0"},{"horizon":10,"rewards_L":[61,49,34,31,39,31,34,39,44,39],"rewards_R":[18,21,28,20,14,23,23,20,17,14],"key_presses":["arrowleft","arrowright","arrowright","arrowleft","arrowright","arrowleft","arrowleft","arrowleft","arrowleft","arrowleft"],"response_times":[794,384,570,365,1981,593,283,236,234,448],"outcomes":[61,21,28,31,14,31,34,39,44,39],"screen_resolution":1,"trial_type":"horizons-trial","trial_index":137,"time_elapsed":859407,"internal_node_id":"0.0-133.0"},{"horizon":10,"rewards_L":[53,59,47,61,67,60,53,64,60,66],"rewards_R":[46,32,39,40,27,22,23,39,40,42],"key_presses":["arrowleft","arrowright","arrowright","arrowright","arrowleft","arrowleft","arrowleft","arrowleft","arrowleft","arrowleft"],"response_times":[519,365,696,985,818,1263,401,244,286,289],"outcomes":[53,32,39,40,67,60,53,64,60,66],"screen_resolution":1,"trial_type":"horizons-trial","trial_index":138,"time_elapsed":866234,"internal_node_id":"0.0-134.0"},{"horizon":10,"rewards_L":[44,61,47,62,54,56,53,55,36,51],"rewards_R":[53,54,57,53,67,62,60,59,69,63],"key_presses":["arrowright","arrowleft","arrowleft","arrowleft","arrowright","arrowright","arrowright","arrowright","arrowright","arrowright"],"response_times":[476,361,527,470,636,1919,3348,315,320,317],"outcomes":[53,61,47,62,67,62,60,59,69,63],"screen_resolution":1,"trial_type":"horizons-trial","trial_index":139,"time_elapsed":875565,"internal_node_id":"0.0-135.0"},{"horizon":10,"rewards_L":[28,33,36,36,27,51,37,33,22,43],"rewards_R":[34,29,30,27,35,33,41,23,30,44],"key_presses":["arrowleft","arrowright","arrowright","arrowright","arrowleft","arrowleft","arrowleft","arrowleft","arrowleft","arrowleft"],"response_times":[534,327,616,772,510,1300,2058,235,271,266],"outcomes":[28,29,30,27,27,51,37,33,22,43],"screen_resolution":1,"trial_type":"horizons-trial","trial_index":140,"time_elapsed":883000,"internal_node_id":"0.0-136.0"},{"horizon":10,"rewards_L":[0,9,0,3,6,22,13,11,4,18],"rewards_R":[41,41,44,40,44,51,38,25,30,43],"key_presses":["arrowright","arrowright","arrowleft","arrowleft","arrowright","arrowright","arrowright","arrowright","arrowright","arrowright"],"response_times":[509,527,427,884,582,232,210,213,220,200],"outcomes":[41,41,0,3,44,51,38,25,30,43],"screen_resolution":1,"trial_type":"horizons-trial","trial_index":141,"time_elapsed":887816,"internal_node_id":"0.0-137.0"},{"horizon":5,"rewards_L":[89,77,82,70,83],"rewards_R":[61,53,56,66,69],"key_presses":["arrowleft","arrowleft","arrowright","arrowleft","arrowleft"],"response_times":[720,651,764,497,431],"outcomes":[89,77,56,70,83],"screen_resolution":1,"trial_type":"horizons-trial","trial_index":142,"time_elapsed":891544,"internal_node_id":"0.0-138.0"},{"horizon":5,"rewards_L":[61,47,63,68,63],"rewards_R":[64,75,66,67,62],"key_presses":["arrowright","arrowright","arrowleft","arrowright","arrowright"],"response_times":[538,605,433,559,7103],"outcomes":[64,75,63,67,62],"screen_resolution":1,"trial_type":"horizons-trial","trial_index":143,"time_elapsed":901316,"internal_node_id":"0.0-139.0"},{"horizon":5,"rewards_L":[43,32,44,25,26],"rewards_R":[35,53,38,55,35],"key_presses":["arrowright","arrowleft","arrowleft","arrowleft","arrowright"],"response_times":[436,582,725,1124,764],"outcomes":[35,32,44,25,35],"screen_resolution":1,"trial_type":"horizons-trial","trial_index":144,"time_elapsed":905965,"internal_node_id":"0.0-140.0"},{"horizon":5,"rewards_L":[81,58,74,58,71],"rewards_R":[63,71,65,68,52],"key_presses":["arrowright","arrowleft","arrowright","arrowright","arrowright"],"response_times":[495,443,399,592,379],"outcomes":[63,58,65,68,52],"screen_resolution":1,"trial_type":"horizons-trial","trial_index":145,"time_elapsed":909041,"internal_node_id":"0.0-141.0"},{"horizon":10,"rewards_L":[63,46,70,65,61,61,56,67,52,54],"rewards_R":[68,80,75,81,72,65,57,57,53,70],"key_presses":["arrowleft","arrowright","arrowleft","arrowright","arrowright","arrowright","arrowright","arrowright","arrowleft","arrowright"],"response_times":[705,340,519,296,779,392,1152,477,847,562],"outcomes":[63,80,70,81,72,65,57,57,52,70],"screen_resolution":1,"trial_type":"horizons-trial","trial_index":146,"time_elapsed":915869,"internal_node_id":"0.0-142.0"},{"horizon":5,"rewards_L":[48,37,58,51,44],"rewards_R":[55,50,59,65,49],"key_presses":["arrowright","arrowright","arrowleft","arrowright","arrowright"],"response_times":[575,523,449,443,1486],"outcomes":[55,50,58,65,49],"screen_resolution":1,"trial_type":"horizons-trial","trial_index":147,"time_elapsed":920264,"internal_node_id":"0.0-143.0"},{"horizon":5,"rewards_L":[60,59,59,58,51],"rewards_R":[39,34,52,38,28],"key_presses":["arrowright","arrowleft","arrowright","arrowright","arrowleft"],"response_times":[435,404,370,501,831],"outcomes":[39,59,52,38,51],"screen_resolution":1,"trial_type":"horizons-trial","trial_index":148,"time_elapsed":923319,"internal_node_id":"0.0-144.0"},{"horizon":5,"rewards_L":[27,35,38,47,41],"rewards_R":[35,34,47,26,42],"key_presses":["arrowright","arrowleft","arrowleft","arrowleft","arrowleft"],"response_times":[537,461,603,476,1718],"outcomes":[35,35,38,47,41],"screen_resolution":1,"trial_type":"horizons-trial","trial_index":149,"time_elapsed":927901,"internal_node_id":"0.0-145.0"},{"horizon":10,"rewards_L":[42,54,57,43,50,50,57,42,44,42],"rewards_R":[48,48,39,46,29,56,52,33,40,37],"key_presses":["arrowright","arrowleft","arrowleft","arrowright","arrowleft","arrowleft","arrowleft","arrowleft","arrowleft","arrowleft"],"response_times":[598,446,492,549,973,279,436,399,1432,449],"outcomes":[48,54,57,46,50,50,57,42,44,42],"screen_resolution":1,"trial_type":"horizons-trial","trial_index":150,"time_elapsed":934575,"internal_node_id":"0.0-146.0"},{"horizon":10,"rewards_L":[57,53,51,62,62,51,60,66,53,64],"rewards_R":[74,72,81,61,77,63,83,63,83,87],"key_presses":["arrowleft","arrowright","arrowleft","arrowleft","arrowright","arrowright","arrowright","arrowright","arrowright","arrowright"],"response_times":[595,412,469,849,1190,731,476,530,429,393],"outcomes":[57,72,51,62,77,63,83,63,83,87],"screen_resolution":1,"trial_type":"horizons-trial","trial_index":151,"time_elapsed":941521,"internal_node_id":"0.0-147.0"},{"horizon":10,"rewards_L":[69,62,49,58,53,66,46,55,58,56],"rewards_R":[65,53,51,61,57,56,66,43,64,64],"key_presses":["arrowright","arrowleft","arrowleft","arrowleft","arrowright","arrowright","arrowright","arrowright","arrowright","arrowright"],"response_times":[416,437,551,952,901,1123,596,554,5255,412],"outcomes":[65,62,49,58,57,56,66,43,64,64],"screen_resolution":1,"trial_type":"horizons-trial","trial_index":152,"time_elapsed":953433,"internal_node_id":"0.0-148.0"},{"horizon":5,"rewards_L":[16,38,19,29,39],"rewards_R":[51,33,49,40,34],"key_presses":["arrowright","arrowleft","arrowleft","arrowleft","arrowright"],"response_times":[428,473,445,387,437],"outcomes":[51,38,19,29,34],"screen_resolution":1,"trial_type":"horizons-trial","trial_index":153,"time_elapsed":956137,"internal_node_id":"0.0-149.0"},{"horizon":5,"rewards_L":[46,43,49,48,41],"rewards_R":[50,44,51,53,67],"key_presses":["arrowleft","arrowright","arrowleft","arrowleft","arrowleft"],"response_times":[615,430,361,561,2259],"outcomes":[46,44,49,48,41],"screen_resolution":1,"trial_type":"horizons-trial","trial_index":154,"time_elapsed":961147,"internal_node_id":"0.0-150.0"},{"horizon":5,"rewards_L":[76,59,68,70,71],"rewards_R":[62,80,72,55,78],"key_presses":["arrowleft","arrowright","arrowleft","arrowleft","arrowright"],"response_times":[447,391,374,705,1010],"outcomes":[76,80,68,70,78],"screen_resolution":1,"trial_type":"horizons-trial","trial_index":155,"time_elapsed":964726,"internal_node_id":"0.0-151.0"},{"horizon":10,"rewards_L":[78,57,47,53,79,51,64,50,49,59],"rewards_R":[66,59,48,58,67,54,66,72,71,67],"key_presses":["arrowleft","arrowleft","arrowright","arrowright","arrowleft","arrowleft","arrowleft","arrowleft","arrowleft","arrowleft"],"response_times":[597,629,427,494,1850,570,1058,1194,468,606],"outcomes":[78,57,48,58,79,51,64,50,49,59],"screen_resolution":1,"trial_type":"horizons-trial","trial_index":156,"time_elapsed":973510,"internal_node_id":"0.0-152.0"},{"horizon":10,"rewards_L":[50,52,46,48,57,46,53,40,38,53],"rewards_R":[32,42,39,35,38,42,49,39,35,42],"key_presses":["arrowleft","arrowright","arrowright","arrowleft","arrowleft","arrowleft","arrowleft","arrowleft","arrowleft","arrowleft"],"response_times":[519,449,596,544,468,2376,1764,420,385,434],"outcomes":[50,42,39,48,57,46,53,40,38,53],"screen_resolution":1,"trial_type":"horizons-trial","trial_index":157,"time_elapsed":981979,"internal_node_id":"0.0-153.0"},{"horizon":10,"rewards_L":[44,46,38,40,56,37,41,47,44,40],"rewards_R":[41,35,42,60,35,33,35,44,27,39],"key_presses":["arrowleft","arrowleft","arrowright","arrowleft","arrowright","arrowleft","arrowleft","arrowleft","arrowleft","arrowleft"],"response_times":[441,446,462,794,1664,1143,828,938,311,453],"outcomes":[44,46,42,40,35,37,41,47,44,40],"screen_resolution":1,"trial_type":"horizons-trial","trial_index":158,"time_elapsed":990340,"internal_node_id":"0.0-154.0"},{"horizon":10,"rewards_L":[69,58,49,64,52,59,56,52,63,58],"rewards_R":[42,54,46,45,55,39,58,49,39,56],"key_presses":["arrowleft","arrowright","arrowright","arrowright","arrowleft","arrowleft","arrowleft","arrowleft","arrowleft","arrowleft"],"response_times":[475,375,513,918,3459,1638,593,445,460,582],"outcomes":[69,54,46,45,52,59,56,52,63,58],"screen_resolution":1,"trial_type":"horizons-trial","trial_index":159,"time_elapsed":1000325,"internal_node_id":"0.0-155.0"},{"horizon":10,"rewards_L":[37,31,44,37,48,40,38,35,48,45],"rewards_R":[49,33,32,39,65,32,53,32,43,41],"key_presses":["arrowleft","arrowleft","arrowright","arrowright","arrowright","arrowleft","arrowright","arrowright","arrowright","arrowright"],"response_times":[448,436,475,424,3209,500,598,313,483,273],"outcomes":[37,31,32,39,65,40,53,32,43,41],"screen_resolution":1,"trial_type":"horizons-trial","trial_index":160,"time_elapsed":1008342,"internal_node_id":"0.0-156.0"},{"horizon":10,"rewards_L":[83,100,84,86,84,86,91,100,98,81],"rewards_R":[62,58,64,66,62,60,61,54,59,50],"key_presses":["arrowright","arrowright","arrowleft","arrowleft","arrowleft","arrowleft","arrowleft","arrowleft","arrowleft","arrowleft"],"response_times":[449,728,460,485,1348,440,404,290,253,310],"outcomes":[62,58,84,86,84,86,91,100,98,81],"screen_resolution":1,"trial_type":"horizons-trial","trial_index":161,"time_elapsed":1014335,"internal_node_id":"0.0-157.0"},{"horizon":10,"rewards_L":[38,26,26,48,34,41,32,23,38,46],"rewards_R":[32,46,51,50,38,42,68,63,50,51],"key_presses":["arrowleft","arrowright","arrowleft","arrowleft","arrowright","arrowright","arrowright","arrowright","arrowright","arrowright"],"response_times":[422,419,293,609,1393,2250,697,321,294,306],"outcomes":[38,46,26,48,38,42,68,63,50,51],"screen_resolution":1,"trial_type":"horizons-trial","trial_index":162,"time_elapsed":1022060,"internal_node_id":"0.0-158.0"},{"horizon":5,"rewards_L":[99,97,70,99,84],"rewards_R":[63,68,70,60,58],"key_presses":["arrowleft","arrowleft","arrowright","arrowleft","arrowleft"],"response_times":[671,672,519,413,335],"outcomes":[99,97,70,99,84],"screen_resolution":1,"trial_type":"horizons-trial","trial_index":163,"time_elapsed":1025356,"internal_node_id":"0.0-159.0"},{"horizon":10,"rewards_L":[56,69,79,60,64,63,67,70,66,52],"rewards_R":[42,52,40,46,50,51,46,58,46,50],"key_presses":["arrowleft","arrowright","arrowright","arrowright","arrowleft","arrowleft","arrowleft","arrowleft","arrowleft","arrowleft"],"response_times":[522,356,711,631,503,870,650,1045,395,281],"outcomes":[56,52,40,46,64,63,67,70,66,52],"screen_resolution":1,"trial_type":"horizons-trial","trial_index":164,"time_elapsed":1032138,"internal_node_id":"0.0-160.0"},{"horizon":10,"rewards_L":[47,25,42,45,41,45,50,36,45,39],"rewards_R":[27,11,11,14,31,28,23,24,17,30],"key_presses":["arrowleft","arrowright","arrowright","arrowright","arrowleft","arrowleft","arrowleft","arrowleft","arrowleft","arrowleft"],"response_times":[490,340,813,362,528,613,361,289,310,350],"outcomes":[47,11,11,14,41,45,50,36,45,39],"screen_resolution":1,"trial_type":"horizons-trial","trial_index":165,"time_elapsed":1037347,"internal_node_id":"0.0-161.0"},{"horizon":10,"rewards_L":[40,46,22,45,33,27,39,48,34,39],"rewards_R":[66,64,57,49,61,61,74,56,64,66],"key_presses":["arrowleft","arrowright","arrowleft","arrowright","arrowleft","arrowright","arrowright","arrowright","arrowright","arrowright"],"response_times":[432,377,349,413,443,4337,688,181,196,180],"outcomes":[40,64,22,49,33,61,74,56,64,66],"screen_resolution":1,"trial_type":"horizons-trial","trial_index":166,"time_elapsed":1045704,"internal_node_id":"0.0-162.0"},{"horizon":5,"rewards_L":[66,57,51,65,64],"rewards_R":[53,37,36,40,45],"key_presses":["arrowleft","arrowright","arrowright","arrowleft","arrowleft"],"response_times":[517,373,498,719,432],"outcomes":[66,37,36,65,64],"screen_resolution":1,"trial_type":"horizons-trial","trial_index":167,"time_elapsed":1048945,"internal_node_id":"0.0-163.0"},{"horizon":10,"rewards_L":[13,32,33,21,28,27,39,22,35,31],"rewards_R":[21,33,33,34,32,29,39,38,36,58],"key_presses":["arrowright","arrowleft","arrowleft","arrowleft","arrowright","arrowright","arrowleft","arrowleft","arrowleft","arrowleft"],"response_times":[528,409,438,400,1029,967,1510,627,315,780],"outcomes":[21,32,33,21,32,29,39,22,35,31],"screen_resolution":1,"trial_type":"horizons-trial","trial_index":168,"time_elapsed":1056797,"internal_node_id":"0.0-164.0"},{"horizon":10,"rewards_L":[33,40,42,28,23,34,56,33,32,34],"rewards_R":[46,55,50,55,52,48,45,57,60,65],"key_presses":["arrowright","arrowright","arrowleft","arrowright","arrowleft","arrowright","arrowright","arrowright","arrowright","arrowright"],"response_times":[692,470,714,800,912,527,264,272,245,239],"outcomes":[46,55,42,55,23,48,45,57,60,65],"screen_resolution":1,"trial_type":"horizons-trial","trial_index":169,"time_elapsed":1062593,"internal_node_id":"0.0-165.0"},{"horizon":5,"rewards_L":[51,54,45,35,48],"rewards_R":[48,43,35,50,40],"key_presses":["arrowleft","arrowright","arrowright","arrowleft","arrowleft"],"response_times":[910,313,528,4146,1410],"outcomes":[51,43,35,35,48],"screen_resolution":1,"trial_type":"horizons-trial","trial_index":170,"time_elapsed":1070659,"internal_node_id":"0.0-166.0"},{"horizon":5,"rewards_L":[63,48,67,65,54],"rewards_R":[89,86,92,86,87],"key_presses":["arrowleft","arrowright","arrowleft","arrowleft","arrowright"],"response_times":[443,369,371,619,385],"outcomes":[63,86,67,65,87],"screen_resolution":1,"trial_type":"horizons-trial","trial_index":171,"time_elapsed":1073383,"internal_node_id":"0.0-167.0"},{"horizon":5,"rewards_L":[16,15,23,32,20],"rewards_R":[27,30,59,28,32],"key_presses":["arrowleft","arrowright","arrowleft","arrowright","arrowright"],"response_times":[514,342,483,440,1916],"outcomes":[16,30,23,28,32],"screen_resolution":1,"trial_type":"horizons-trial","trial_index":172,"time_elapsed":1077795,"internal_node_id":"0.0-168.0"},{"horizon":10,"rewards_L":[38,38,34,39,26,58,30,53,46,31],"rewards_R":[69,42,67,61,52,59,64,62,53,55],"key_presses":["arrowright","arrowright","arrowleft","arrowright","arrowright","arrowright","arrowright","arrowright","arrowright","arrowright"],"response_times":[496,588,388,498,716,492,490,425,420,394],"outcomes":[69,42,34,61,52,59,64,62,53,55],"screen_resolution":1,"trial_type":"horizons-trial","trial_index":173,"time_elapsed":1083536,"internal_node_id":"0.0-169.0"},{"horizon":5,"rewards_L":[88,79,66,95,82],"rewards_R":[63,57,59,61,63],"key_presses":["arrowleft","arrowleft","arrowright","arrowright","arrowleft"],"response_times":[609,752,371,424,427],"outcomes":[88,79,59,61,82],"screen_resolution":1,"trial_type":"horizons-trial","trial_index":174,"time_elapsed":1086892,"internal_node_id":"0.0-170.0"},{"horizon":5,"rewards_L":[50,50,71,63,55],"rewards_R":[58,58,56,57,53],"key_presses":["arrowleft","arrowright","arrowright","arrowright","arrowright"],"response_times":[465,298,717,509,766],"outcomes":[50,58,56,57,53],"screen_resolution":1,"trial_type":"horizons-trial","trial_index":175,"time_elapsed":1090385,"internal_node_id":"0.0-171.0"},{"horizon":5,"rewards_L":[55,58,64,65,68],"rewards_R":[71,57,77,63,68],"key_presses":["arrowright","arrowright","arrowleft","arrowright","arrowleft"],"response_times":[486,428,632,1090,1269],"outcomes":[71,57,64,63,68],"screen_resolution":1,"trial_type":"horizons-trial","trial_index":176,"time_elapsed":1094826,"internal_node_id":"0.0-172.0"},{"horizon":10,"rewards_L":[37,32,24,28,36,37,42,25,20,23],"rewards_R":[64,54,68,59,55,46,72,58,51,53],"key_presses":["arrowleft","arrowright","arrowright","arrowleft","arrowright","arrowleft","arrowright","arrowright","arrowright","arrowright"],"response_times":[657,307,570,1438,1455,1383,1026,235,246,214],"outcomes":[37,54,68,28,55,37,72,58,51,53],"screen_resolution":1,"trial_type":"horizons-trial","trial_index":177,"time_elapsed":1103159,"internal_node_id":"0.0-173.0"},{"horizon":10,"rewards_L":[54,44,35,31,46,46,47,44,41,54],"rewards_R":[56,69,75,69,62,71,62,53,49,56],"key_presses":["arrowright","arrowright","arrowleft","arrowleft","arrowright","arrowright","arrowright","arrowright","arrowright","arrowright"],"response_times":[418,368,513,1123,1045,546,298,309,274,279],"outcomes":[56,69,35,31,62,71,62,53,49,56],"screen_resolution":1,"trial_type":"horizons-trial","trial_index":178,"time_elapsed":1109098,"internal_node_id":"0.0-174.0"},{"horizon":5,"rewards_L":[41,39,38,47,36],"rewards_R":[54,69,50,48,56],"key_presses":["arrowright","arrowleft","arrowleft","arrowleft","arrowright"],"response_times":[377,466,441,393,473],"outcomes":[54,39,38,47,56],"screen_resolution":1,"trial_type":"horizons-trial","trial_index":179,"time_elapsed":1112050,"internal_node_id":"0.0-175.0"},{"horizon":5,"rewards_L":[36,30,34,43,30],"rewards_R":[31,42,41,35,28],"key_presses":["arrowleft","arrowright","arrowleft","arrowright","arrowright"],"response_times":[473,364,422,722,2805],"outcomes":[36,42,34,35,28],"screen_resolution":1,"trial_type":"horizons-trial","trial_index":180,"time_elapsed":1117583,"internal_node_id":"0.0-176.0"},{"horizon":5,"rewards_L":[39,46,45,41,42],"rewards_R":[51,49,57,51,52],"key_presses":["arrowleft","arrowright","arrowright","arrowleft","arrowright"],"response_times":[715,386,510,4032,596],"outcomes":[39,49,57,41,52],"screen_resolution":1,"trial_type":"horizons-trial","trial_index":181,"time_elapsed":1124766,"internal_node_id":"0.0-177.0"},{"horizon":5,"rewards_L":[47,60,55,62,64],"rewards_R":[35,52,47,70,49],"key_presses":["arrowleft","arrowright","arrowright","arrowright","arrowright"],"response_times":[473,375,656,895,804],"outcomes":[47,52,47,70,49],"screen_resolution":1,"trial_type":"horizons-trial","trial_index":182,"time_elapsed":1128784,"internal_node_id":"0.0-178.0"},{"horizon":5,"rewards_L":[62,81,60,62,60],"rewards_R":[75,64,55,70,52],"key_presses":["arrowright","arrowleft","arrowleft","arrowright","arrowright"],"response_times":[519,430,524,530,4807],"outcomes":[75,81,60,70,52],"screen_resolution":1,"trial_type":"horizons-trial","trial_index":183,"time_elapsed":1136437,"internal_node_id":"0.0-179.0"},{"horizon":5,"rewards_L":[65,60,75,45,58],"rewards_R":[83,82,92,71,64],"key_presses":["arrowright","arrowright","arrowleft","arrowright","arrowright"],"response_times":[469,458,759,415,1061],"outcomes":[83,82,75,71,64],"screen_resolution":1,"trial_type":"horizons-trial","trial_index":184,"time_elapsed":1140140,"internal_node_id":"0.0-180.0"},{"horizon":5,"rewards_L":[0,10,0,6,17],"rewards_R":[42,48,49,63,33],"key_presses":["arrowright","arrowleft","arrowleft","arrowleft","arrowright"],"response_times":[404,518,546,687,345],"outcomes":[42,10,0,6,33],"screen_resolution":1,"trial_type":"horizons-trial","trial_index":185,"time_elapsed":1143331,"internal_node_id":"0.0-181.0"},{"horizon":10,"rewards_L":[82,76,79,78,93,71,72,83,77,84],"rewards_R":[65,67,52,52,61,47,71,66,62,52],"key_presses":["arrowleft","arrowleft","arrowright","arrowright","arrowright","arrowleft","arrowleft","arrowleft","arrowleft","arrowleft"],"response_times":[814,528,460,455,386,811,517,363,384,728],"outcomes":[82,76,52,52,61,71,72,83,77,84],"screen_resolution":1,"trial_type":"horizons-trial","trial_index":186,"time_elapsed":1149289,"internal_node_id":"0.0-182.0"},{"horizon":5,"rewards_L":[44,48,37,41,44],"rewards_R":[33,27,27,16,15],"key_presses":["arrowleft","arrowleft","arrowleft","arrowright","arrowleft"],"response_times":[509,417,575,372,797],"outcomes":[44,48,37,16,44],"screen_resolution":1,"trial_type":"horizons-trial","trial_index":187,"time_elapsed":1152715,"internal_node_id":"0.0-183.0"},{"horizon":10,"rewards_L":[59,57,47,62,60,59,50,72,59,56],"rewards_R":[42,44,45,47,30,51,50,32,53,37],"key_presses":["arrowright","arrowleft","arrowright","arrowright","arrowleft","arrowleft","arrowleft","arrowleft","arrowleft","arrowleft"],"response_times":[521,365,499,1193,1158,698,764,1120,451,308],"outcomes":[42,57,45,47,60,59,50,72,59,56],"screen_resolution":1,"trial_type":"horizons-trial","trial_index":188,"time_elapsed":1160582,"internal_node_id":"0.0-184.0"},{"horizon":10,"rewards_L":[57,50,77,69,52,47,68,54,66,68],"rewards_R":[16,22,27,34,20,14,23,34,34,29],"key_presses":["arrowleft","arrowright","arrowright","arrowleft","arrowleft","arrowleft","arrowleft","arrowleft","arrowleft","arrowleft"],"response_times":[449,303,727,413,3005,270,240,256,308,239],"outcomes":[57,22,27,69,52,47,68,54,66,68],"screen_resolution":1,"trial_type":"horizons-trial","trial_index":189,"time_elapsed":1167397,"internal_node_id":"0.0-185.0"},{"horizon":10,"rewards_L":[40,49,58,49,68,48,46,55,35,54],"rewards_R":[59,58,45,68,63,57,49,62,49,75],"key_presses":["arrowright","arrowleft","arrowleft","arrowright","arrowright","arrowright","arrowright","arrowright","arrowright","arrowright"],"response_times":[652,487,579,688,992,514,298,2302,408,521],"outcomes":[59,49,58,68,63,57,49,62,49,75],"screen_resolution":1,"trial_type":"horizons-trial","trial_index":190,"time_elapsed":1175713,"internal_node_id":"0.0-186.0"},{"horizon":5,"rewards_L":[81,80,74,72,76],"rewards_R":[32,36,38,36,32],"key_presses":["arrowright","arrowleft","arrowright","arrowleft","arrowleft"],"response_times":[796,400,784,357,558],"outcomes":[32,80,38,72,76],"screen_resolution":1,"trial_type":"horizons-trial","trial_index":191,"time_elapsed":1179545,"internal_node_id":"0.0-187.0"},{"horizon":5,"rewards_L":[29,37,21,23,31],"rewards_R":[27,39,44,48,33],"key_presses":["arrowright","arrowright","arrowright","arrowleft","arrowright"],"response_times":[555,770,568,430,834],"outcomes":[27,39,44,23,33],"screen_resolution":1,"trial_type":"horizons-trial","trial_index":192,"time_elapsed":1183280,"internal_node_id":"0.0-188.0"},{"horizon":5,"rewards_L":[72,56,58,54,56],"rewards_R":[43,63,63,53,47],"key_presses":["arrowleft","arrowleft","arrowright","arrowleft","arrowleft"],"response_times":[578,462,567,906,2653],"outcomes":[72,56,63,54,56],"screen_resolution":1,"trial_type":"horizons-trial","trial_index":193,"time_elapsed":1189104,"internal_node_id":"0.0-189.0"},{"horizon":10,"rewards_L":[49,39,52,51,44,42,57,48,61,69],"rewards_R":[55,58,66,38,68,59,56,56,61,58],"key_presses":["arrowright","arrowleft","arrowright","arrowleft","arrowright","arrowright","arrowright","arrowright","arrowright","arrowright"],"response_times":[536,404,498,467,582,938,620,739,396,380],"outcomes":[55,39,66,51,68,59,56,56,61,58],"screen_resolution":1,"trial_type":"horizons-trial","trial_index":194,"time_elapsed":1195528,"internal_node_id":"0.0-190.0"},{"horizon":5,"rewards_L":[30,46,43,42,36],"rewards_R":[60,39,43,56,40],"key_presses":["arrowleft","arrowright","arrowleft","arrowright","arrowright"],"response_times":[769,381,488,346,839],"outcomes":[30,39,43,56,40],"screen_resolution":1,"trial_type":"horizons-trial","trial_index":195,"time_elapsed":1199255,"internal_node_id":"0.0-191.0"},{"horizon":5,"rewards_L":[34,47,32,45,41],"rewards_R":[58,60,60,58,68],"key_presses":["arrowright","arrowleft","arrowright","arrowleft","arrowright"],"response_times":[500,348,603,2477,616],"outcomes":[58,47,60,45,68],"screen_resolution":1,"trial_type":"horizons-trial","trial_index":196,"time_elapsed":1204391,"internal_node_id":"0.0-192.0"},{"horizon":10,"rewards_L":[57,68,57,68,67,67,44,48,61,54],"rewards_R":[36,47,35,46,72,37,52,56,29,54],"key_presses":["arrowleft","arrowright","arrowright","arrowleft","arrowright","arrowleft","arrowleft","arrowleft","arrowleft","arrowleft"],"response_times":[570,356,518,1371,892,2456,919,387,1262,294],"outcomes":[57,47,35,68,72,67,44,48,61,54],"screen_resolution":1,"trial_type":"horizons-trial","trial_index":197,"time_elapsed":1214329,"internal_node_id":"0.0-193.0"},{"horizon":5,"rewards_L":[54,68,51,67,55],"rewards_R":[46,37,29,46,52],"key_presses":["arrowright","arrowleft","arrowleft","arrowright","arrowleft"],"response_times":[568,392,502,671,2458],"outcomes":[46,68,51,46,55],"screen_resolution":1,"trial_type":"horizons-trial","trial_index":198,"time_elapsed":1219728,"internal_node_id":"0.0-194.0"},{"horizon":10,"rewards_L":[71,63,65,66,74,76,66,56,77,59],"rewards_R":[49,42,36,34,26,44,32,37,30,54],"key_presses":["arrowleft","arrowleft","arrowright","arrowleft","arrowright","arrowleft","arrowleft","arrowleft","arrowleft","arrowleft"],"response_times":[529,431,396,613,950,593,313,265,234,219],"outcomes":[71,63,36,66,26,76,66,56,77,59],"screen_resolution":1,"trial_type":"horizons-trial","trial_index":199,"time_elapsed":1225054,"internal_node_id":"0.0-195.0"},{"horizon":10,"rewards_L":[44,38,28,32,22,46,34,47,32,33],"rewards_R":[58,55,52,62,45,56,40,60,62,53],"key_presses":["arrowright","arrowleft","arrowleft","arrowright","arrowright","arrowright","arrowright","arrowright","arrowright","arrowright"],"response_times":[612,426,618,832,846,295,567,306,405,390],"outcomes":[58,38,28,62,45,56,40,60,62,53],"screen_resolution":1,"trial_type":"horizons-trial","trial_index":200,"time_elapsed":1231254,"internal_node_id":"0.0-196.0"},{"horizon":10,"rewards_L":[42,43,58,49,61,46,49,53,52,47],"rewards_R":[65,51,62,54,58,56,53,74,63,63],"key_presses":["arrowright","arrowright","arrowright","arrowleft","arrowleft","arrowleft","arrowright","arrowright","arrowright","arrowright"],"response_times":[410,511,487,517,1190,3497,690,248,259,507],"outcomes":[65,51,62,49,61,46,53,74,63,63],"screen_resolution":1,"trial_type":"horizons-trial","trial_index":201,"time_elapsed":1240363,"internal_node_id":"0.0-197.0"},{"horizon":10,"rewards_L":[84,64,67,62,62,67,69,70,61,62],"rewards_R":[57,61,60,43,63,55,59,50,62,58],"key_presses":["arrowright","arrowleft","arrowright","arrowright","arrowleft","arrowleft","arrowleft","arrowleft","arrowleft","arrowleft"],"response_times":[385,776,436,759,1815,809,435,242,335,297],"outcomes":[57,64,60,43,62,67,69,70,61,62],"screen_resolution":1,"trial_type":"horizons-trial","trial_index":202,"time_elapsed":1247521,"internal_node_id":"0.0-198.0"},{"horizon":10,"rewards_L":[45,45,66,56,46,55,49,65,69,74],"rewards_R":[93,88,93,77,92,96,79,94,92,98],"key_presses":["arrowright","arrowright","arrowleft","arrowright","arrowright","arrowright","arrowright","arrowright","arrowright","arrowright"],"response_times":[729,492,566,461,578,1096,305,320,265,345],"outcomes":[93,88,66,77,92,96,79,94,92,98],"screen_resolution":1,"trial_type":"horizons-trial","trial_index":203,"time_elapsed":1253562,"internal_node_id":"0.0-199.0"},{"horizon":10,"rewards_L":[81,84,71,71,80,84,75,89,84,98],"rewards_R":[60,56,71,53,66,51,43,71,60,68],"key_presses":["arrowright","arrowleft","arrowleft","arrowright","arrowleft","arrowleft","arrowleft","arrowleft","arrowleft","arrowleft"],"response_times":[510,384,872,804,748,537,268,270,275,294],"outcomes":[60,84,71,53,80,84,75,89,84,98],"screen_resolution":1,"trial_type":"horizons-trial","trial_index":204,"time_elapsed":1259079,"internal_node_id":"0.0-200.0"},{"horizon":5,"rewards_L":[31,34,25,24,50],"rewards_R":[58,68,71,44,57],"key_presses":["arrowleft","arrowleft","arrowright","arrowright","arrowright"],"response_times":[603,729,402,518,537],"outcomes":[31,34,71,44,57],"screen_resolution":1,"trial_type":"horizons-trial","trial_index":205,"time_elapsed":1262476,"internal_node_id":"0.0-201.0"},{"horizon":10,"rewards_L":[24,40,48,45,40,41,29,35,30,35],"rewards_R":[16,9,28,12,18,9,21,12,11,11],"key_presses":["arrowleft","arrowleft","arrowleft","arrowright","arrowleft","arrowleft","arrowleft","arrowleft","arrowleft","arrowleft"],"response_times":[495,479,656,713,1287,287,320,265,252,291],"outcomes":[24,40,48,12,40,41,29,35,30,35],"screen_resolution":1,"trial_type":"horizons-trial","trial_index":206,"time_elapsed":1268247,"internal_node_id":"0.0-202.0"},{"horizon":10,"rewards_L":[44,55,25,37,65,39,44,33,37,44],"rewards_R":[30,11,43,22,42,22,27,20,19,33],"key_presses":["arrowleft","arrowleft","arrowleft","arrowright","arrowleft","arrowleft","arrowleft","arrowleft","arrowleft","arrowleft"],"response_times":[420,439,444,613,1042,510,261,291,302,325],"outcomes":[44,55,25,22,65,39,44,33,37,44],"screen_resolution":1,"trial_type":"horizons-trial","trial_index":207,"time_elapsed":1273622,"internal_node_id":"0.0-203.0"},{"horizon":10,"rewards_L":[59,65,67,65,53,58,56,58,52,61],"rewards_R":[68,70,83,77,79,73,69,81,75,77],"key_presses":["arrowright","arrowleft","arrowright","arrowleft","arrowright","arrowright","arrowright","arrowright","arrowright","arrowright"],"response_times":[532,412,440,400,1406,2261,350,265,319,351],"outcomes":[68,65,83,65,79,73,69,81,75,77],"screen_resolution":1,"trial_type":"horizons-trial","trial_index":208,"time_elapsed":1281149,"internal_node_id":"0.0-204.0"},{"horizon":10,"rewards_L":[67,68,76,60,62,72,70,68,58,72],"rewards_R":[64,64,51,60,79,68,52,76,59,68],"key_presses":["arrowleft","arrowleft","arrowright","arrowleft","arrowleft","arrowleft","arrowleft","arrowleft","arrowleft","arrowleft"],"response_times":[492,493,401,492,753,533,221,273,349,344],"outcomes":[67,68,51,60,62,72,70,68,58,72],"screen_resolution":1,"trial_type":"horizons-trial","trial_index":209,"time_elapsed":1286067,"internal_node_id":"0.0-205.0"},{"horizon":5,"rewards_L":[28,19,32,24,41],"rewards_R":[44,37,46,36,47],"key_presses":["arrowleft","arrowleft","arrowright","arrowright","arrowright"],"response_times":[410,358,437,768,545],"outcomes":[28,19,46,36,47],"screen_resolution":1,"trial_type":"horizons-trial","trial_index":210,"time_elapsed":1289354,"internal_node_id":"0.0-206.0"},{"horizon":10,"rewards_L":[56,50,64,50,54,62,61,59,77,46],"rewards_R":[67,58,47,50,50,57,47,50,46,41],"key_presses":["arrowleft","arrowleft","arrowright","arrowright","arrowleft","arrowleft","arrowleft","arrowleft","arrowleft","arrowleft"],"response_times":[513,482,494,528,1629,465,474,303,321,351],"outcomes":[56,50,47,50,54,62,61,59,77,46],"screen_resolution":1,"trial_type":"horizons-trial","trial_index":211,"time_elapsed":1295786,"internal_node_id":"0.0-207.0"},{"horizon":5,"rewards_L":[38,26,31,46,40],"rewards_R":[11,28,2,19,20],"key_presses":["arrowleft","arrowleft","arrowright","arrowright","arrowleft"],"response_times":[460,367,553,777,656],"outcomes":[38,26,2,19,40],"screen_resolution":1,"trial_type":"horizons-trial","trial_index":212,"time_elapsed":1299185,"internal_node_id":"0.0-208.0"},{"horizon":10,"rewards_L":[2,3,23,17,7,14,6,0,6,12],"rewards_R":[49,37,55,48,46,40,42,41,41,59],"key_presses":["arrowright","arrowleft","arrowleft","arrowleft","arrowright","arrowright","arrowright","arrowright","arrowright","arrowright"],"response_times":[636,422,587,911,575,563,319,263,230,290],"outcomes":[49,3,23,17,46,40,42,41,41,59],"screen_resolution":1,"trial_type":"horizons-trial","trial_index":213,"time_elapsed":1304849,"internal_node_id":"0.0-209.0"},{"horizon":5,"rewards_L":[62,61,68,54,58],"rewards_R":[60,42,37,63,59],"key_presses":["arrowleft","arrowleft","arrowleft","arrowright","arrowleft"],"response_times":[487,427,397,423,3074],"outcomes":[62,61,68,63,58],"screen_resolution":1,"trial_type":"horizons-trial","trial_index":214,"time_elapsed":1310439,"internal_node_id":"0.0-210.0"},{"horizon":5,"rewards_L":[83,72,78,48,73],"rewards_R":[59,57,68,53,57],"key_presses":["arrowleft","arrowright","arrowright","arrowleft","arrowright"],"response_times":[445,421,805,1352,2095],"outcomes":[83,57,68,48,57],"screen_resolution":1,"trial_type":"horizons-trial","trial_index":215,"time_elapsed":1316413,"internal_node_id":"0.0-211.0"},{"horizon":10,"rewards_L":[52,57,43,66,59,59,53,66,65,57],"rewards_R":[61,62,65,71,67,50,59,74,63,65],"key_presses":["arrowleft","arrowright","arrowleft","arrowleft","arrowright","arrowright","arrowright","arrowright","arrowright","arrowright"],"response_times":[429,430,429,552,4612,641,549,976,418,544],"outcomes":[52,62,43,66,67,50,59,74,63,65],"screen_resolution":1,"trial_type":"horizons-trial","trial_index":216,"time_elapsed":1326577,"internal_node_id":"0.0-212.0"},{"horizon":5,"rewards_L":[61,68,48,43,49],"rewards_R":[87,60,75,67,58],"key_presses":["arrowright","arrowleft","arrowright","arrowleft","arrowright"],"response_times":[568,474,522,478,410],"outcomes":[87,68,75,43,58],"screen_resolution":1,"trial_type":"horizons-trial","trial_index":217,"time_elapsed":1330144,"internal_node_id":"0.0-213.0"},{"horizon":5,"rewards_L":[20,14,0,12,27],"rewards_R":[49,30,52,46,40],"key_presses":["arrowright","arrowleft","arrowleft","arrowright","arrowright"],"response_times":[472,374,693,833,238],"outcomes":[49,14,0,46,40],"screen_resolution":1,"trial_type":"horizons-trial","trial_index":218,"time_elapsed":1333377,"internal_node_id":"0.0-214.0"},{"horizon":5,"rewards_L":[65,75,58,74,75],"rewards_R":[52,52,54,72,48],"key_presses":["arrowright","arrowleft","arrowright","arrowright","arrowleft"],"response_times":[485,392,419,612,1618],"outcomes":[52,75,54,72,75],"screen_resolution":1,"trial_type":"horizons-trial","trial_index":219,"time_elapsed":1337696,"internal_node_id":"0.0-215.0"},{"horizon":10,"rewards_L":[35,40,39,49,45,32,27,43,43,36],"rewards_R":[31,36,40,48,40,53,46,44,42,61],"key_presses":["arrowleft","arrowright","arrowright","arrowleft","arrowleft","arrowright","arrowleft","arrowright","arrowright","arrowright"],"response_times":[449,342,702,427,1463,1331,5161,1003,277,285],"outcomes":[35,36,40,49,45,53,27,44,42,61],"screen_resolution":1,"trial_type":"horizons-trial","trial_index":220,"time_elapsed":1349940,"internal_node_id":"0.0-216.0"},{"horizon":5,"rewards_L":[67,61,66,68,61],"rewards_R":[52,43,46,61,49],"key_presses":["arrowleft","arrowright","arrowleft","arrowright","arrowleft"],"response_times":[808,359,402,1014,1397],"outcomes":[67,43,66,61,61],"screen_resolution":1,"trial_type":"horizons-trial","trial_index":221,"time_elapsed":1354751,"internal_node_id":"0.0-217.0"},{"horizon":5,"rewards_L":[56,43,39,35,42],"rewards_R":[67,78,54,58,62],"key_presses":["arrowright","arrowright","arrowleft","arrowleft","arrowright"],"response_times":[488,503,468,723,1132],"outcomes":[67,78,39,35,62],"screen_resolution":1,"trial_type":"horizons-trial","trial_index":222,"time_elapsed":1358891,"internal_node_id":"0.0-218.0"},{"horizon":5,"rewards_L":[49,52,40,37,58],"rewards_R":[47,41,34,40,45],"key_presses":["arrowright","arrowleft","arrowright","arrowright","arrowleft"],"response_times":[556,364,373,490,1238],"outcomes":[47,52,34,40,58],"screen_resolution":1,"trial_type":"horizons-trial","trial_index":223,"time_elapsed":1362715,"internal_node_id":"0.0-219.0"},{"horizon":10,"rewards_L":[54,48,62,64,73,46,70,63,58,63],"rewards_R":[74,70,70,74,55,63,78,61,59,54],"key_presses":["arrowright","arrowright","arrowleft","arrowright","arrowright","arrowright","arrowright","arrowright","arrowright","arrowright"],"response_times":[593,490,515,411,617,409,362,328,391,351],"outcomes":[74,70,62,74,55,63,78,61,59,54],"screen_resolution":1,"trial_type":"horizons-trial","trial_index":224,"time_elapsed":1368062,"internal_node_id":"0.0-220.0"},{"horizon":5,"rewards_L":[63,72,63,64,56],"rewards_R":[55,59,65,73,52],"key_presses":["arrowleft","arrowright","arrowleft","arrowright","arrowright"],"response_times":[654,340,418,571,1900],"outcomes":[63,59,63,73,52],"screen_resolution":1,"trial_type":"horizons-trial","trial_index":225,"time_elapsed":1373081,"internal_node_id":"0.0-221.0"},{"horizon":10,"rewards_L":[96,88,81,93,89,97,100,97,89,95],"rewards_R":[51,56,78,49,58,48,64,58,51,57],"key_presses":["arrowleft","arrowleft","arrowright","arrowleft","arrowleft","arrowleft","arrowleft","arrowleft","arrowleft","arrowleft"],"response_times":[515,549,593,452,272,261,234,228,226,244],"outcomes":[96,88,78,93,89,97,100,97,89,95],"screen_resolution":1,"trial_type":"horizons-trial","trial_index":226,"time_elapsed":1377375,"internal_node_id":"0.0-222.0"},{"horizon":5,"rewards_L":[43,54,51,74,55],"rewards_R":[79,84,79,72,67],"key_presses":["arrowleft","arrowright","arrowleft","arrowleft","arrowright"],"response_times":[491,379,406,665,1100],"outcomes":[43,84,51,74,67],"screen_resolution":1,"trial_type":"horizons-trial","trial_index":227,"time_elapsed":1380997,"internal_node_id":"0.0-223.0"},{"horizon":5,"rewards_L":[48,65,70,64,47],"rewards_R":[66,59,61,63,63],"key_presses":["arrowright","arrowleft","arrowright","arrowleft","arrowleft"],"response_times":[433,387,458,824,2205],"outcomes":[66,65,61,64,47],"screen_resolution":1,"trial_type":"horizons-trial","trial_index":228,"time_elapsed":1385947,"internal_node_id":"0.0-224.0"},{"horizon":10,"rewards_L":[62,59,51,52,56,69,75,59,61,73],"rewards_R":[62,65,58,51,80,65,54,62,53,60],"key_presses":["arrowleft","arrowright","arrowright","arrowleft","arrowright","arrowright","arrowright","arrowright","arrowright","arrowright"],"response_times":[469,350,710,476,2345,559,296,287,240,259],"outcomes":[62,65,58,52,80,65,54,62,53,60],"screen_resolution":1,"trial_type":"horizons-trial","trial_index":229,"time_elapsed":1392464,"internal_node_id":"0.0-225.0"},{"horizon":10,"rewards_L":[34,42,57,58,40,43,47,39,56,41],"rewards_R":[59,56,67,56,49,43,52,50,52,53],"key_presses":["arrowright","arrowright","arrowleft","arrowleft","arrowright","arrowleft","arrowright","arrowright","arrowright","arrowright"],"response_times":[540,542,372,497,764,681,1464,325,288,477],"outcomes":[59,56,57,58,49,43,52,50,52,53],"screen_resolution":1,"trial_type":"horizons-trial","trial_index":230,"time_elapsed":1399235,"internal_node_id":"0.0-226.0"},{"horizon":10,"rewards_L":[45,42,42,37,51,41,39,33,48,43],"rewards_R":[20,25,8,6,22,19,27,15,14,6],"key_presses":["arrowright","arrowleft","arrowleft","arrowright","arrowleft","arrowleft","arrowleft","arrowleft","arrowleft","arrowleft"],"response_times":[582,374,569,430,829,215,219,205,243,201],"outcomes":[20,42,42,6,51,41,39,33,48,43],"screen_resolution":1,"trial_type":"horizons-trial","trial_index":231,"time_elapsed":1403786,"internal_node_id":"0.0-227.0"},{"horizon":5,"rewards_L":[59,65,61,55,60],"rewards_R":[33,48,40,42,34],"key_presses":["arrowleft","arrowleft","arrowleft","arrowright","arrowleft"],"response_times":[425,555,797,452,503],"outcomes":[59,65,61,42,60],"screen_resolution":1,"trial_type":"horizons-trial","trial_index":232,"time_elapsed":1407282,"internal_node_id":"0.0-228.0"},{"horizon":10,"rewards_L":[49,38,55,52,47,40,47,44,52,57],"rewards_R":[58,66,59,38,68,64,66,56,52,55],"key_presses":["arrowright","arrowright","arrowright","arrowleft","arrowleft","arrowright","arrowright","arrowright","arrowright","arrowright"],"response_times":[562,1030,491,503,1311,1643,554,235,252,302],"outcomes":[58,66,59,52,47,64,66,56,52,55],"screen_resolution":1,"trial_type":"horizons-trial","trial_index":233,"time_elapsed":1414934,"internal_node_id":"0.0-229.0"},{"horizon":5,"rewards_L":[45,35,55,50,49],"rewards_R":[51,51,61,78,57],"key_presses":["arrowright","arrowleft","arrowleft","arrowright","arrowright"],"response_times":[485,413,628,458,853],"outcomes":[51,35,55,78,57],"screen_resolution":1,"trial_type":"horizons-trial","trial_index":234,"time_elapsed":1418636,"internal_node_id":"0.0-230.0"},{"horizon":10,"rewards_L":[50,27,50,37,43,55,38,49,27,55],"rewards_R":[61,72,74,79,75,90,64,73,66,64],"key_presses":["arrowleft","arrowright","arrowright","arrowleft","arrowright","arrowright","arrowright","arrowright","arrowright","arrowright"],"response_times":[576,415,707,350,900,230,231,218,219,240],"outcomes":[50,72,74,37,75,90,64,73,66,64],"screen_resolution":1,"trial_type":"horizons-trial","trial_index":235,"time_elapsed":1423511,"internal_node_id":"0.0-231.0"},{"horizon":5,"rewards_L":[61,53,53,61,66],"rewards_R":[99,92,98,87,87],"key_presses":["arrowright","arrowleft","arrowright","arrowleft","arrowright"],"response_times":[392,402,472,571,336],"outcomes":[99,53,98,61,87],"screen_resolution":1,"trial_type":"horizons-trial","trial_index":236,"time_elapsed":1426216,"internal_node_id":"0.0-232.0"},{"horizon":10,"rewards_L":[27,29,47,24,29,34,28,30,29,16],"rewards_R":[45,31,38,40,38,33,42,38,49,30],"key_presses":["arrowright","arrowright","arrowleft","arrowleft","arrowright","arrowright","arrowright","arrowright","arrowright","arrowright"],"response_times":[475,441,553,425,2180,851,692,911,300,491],"outcomes":[45,31,47,24,38,33,42,38,49,30],"screen_resolution":1,"trial_type":"horizons-trial","trial_index":237,"time_elapsed":1434462,"internal_node_id":"0.0-233.0"},{"horizon":5,"rewards_L":[26,48,41,38,30],"rewards_R":[0,8,10,0,15],"key_presses":["arrowleft","arrowright","arrowright","arrowleft","arrowleft"],"response_times":[823,335,535,366,276],"outcomes":[26,8,10,38,30],"screen_resolution":1,"trial_type":"horizons-trial","trial_index":238,"time_elapsed":1437662,"internal_node_id":"0.0-234.0"},{"horizon":5,"rewards_L":[40,39,26,28,31],"rewards_R":[69,69,63,62,67],"key_presses":["arrowleft","arrowright","arrowleft","arrowleft","arrowright"],"response_times":[597,522,454,1035,427],"outcomes":[40,69,26,28,67],"screen_resolution":1,"trial_type":"horizons-trial","trial_index":239,"time_elapsed":1441386,"internal_node_id":"0.0-235.0"},{"horizon":10,"rewards_L":[63,63,65,56,59,43,64,50,51,63],"rewards_R":[49,50,54,39,50,58,46,45,41,61],"key_presses":["arrowright","arrowright","arrowleft","arrowleft","arrowleft","arrowright","arrowleft","arrowleft","arrowleft","arrowleft"],"response_times":[450,516,916,1205,1290,1301,1708,356,266,257],"outcomes":[49,50,65,56,59,58,64,50,51,63],"screen_resolution":1,"trial_type":"horizons-trial","trial_index":240,"time_elapsed":1450424,"internal_node_id":"0.0-236.0"},{"horizon":10,"rewards_L":[51,54,64,51,51,67,54,61,60,53],"rewards_R":[44,37,46,42,47,38,17,40,30,35],"key_presses":["arrowleft","arrowright","arrowright","arrowright","arrowleft","arrowleft","arrowleft","arrowleft","arrowleft","arrowleft"],"response_times":[384,376,464,1373,1691,759,227,283,245,301],"outcomes":[51,37,46,42,51,67,54,61,60,53],"screen_resolution":1,"trial_type":"horizons-trial","trial_index":241,"time_elapsed":1457195,"internal_node_id":"0.0-237.0"},{"horizon":5,"rewards_L":[52,84,69,70,63],"rewards_R":[36,29,50,36,52],"key_presses":["arrowleft","arrowleft","arrowright","arrowleft","arrowleft"],"response_times":[577,421,366,557,341],"outcomes":[52,84,50,70,63],"screen_resolution":1,"trial_type":"horizons-trial","trial_index":242,"time_elapsed":1460166,"internal_node_id":"0.0-238.0"},{"horizon":10,"rewards_L":[84,70,89,71,75,75,92,88,64,74],"rewards_R":[56,36,61,47,61,55,47,75,71,75],"key_presses":["arrowright","arrowleft","arrowright","arrowright","arrowleft","arrowleft","arrowleft","arrowleft","arrowleft","arrowleft"],"response_times":[513,394,421,588,1861,788,420,240,313,247],"outcomes":[56,70,61,47,75,75,92,88,64,74],"screen_resolution":1,"trial_type":"horizons-trial","trial_index":243,"time_elapsed":1466758,"internal_node_id":"0.0-239.0"},{"horizon":10,"rewards_L":[32,35,41,51,45,34,41,41,42,39],"rewards_R":[43,45,46,53,37,46,54,40,36,54],"key_presses":["arrowright","arrowright","arrowleft","arrowright","arrowleft","arrowright","arrowleft","arrowright","arrowright","arrowright"],"response_times":[604,418,334,568,1655,1606,1974,699,226,223],"outcomes":[43,45,41,53,45,46,41,40,36,54],"screen_resolution":1,"trial_type":"horizons-trial","trial_index":244,"time_elapsed":1475878,"internal_node_id":"0.0-240.0"},{"horizon":5,"rewards_L":[56,45,46,64,64],"rewards_R":[50,34,45,60,28],"key_presses":["arrowleft","arrowleft","arrowright","arrowleft","arrowleft"],"response_times":[683,640,356,577,778],"outcomes":[56,45,45,64,64],"screen_resolution":1,"trial_type":"horizons-trial","trial_index":245,"time_elapsed":1479721,"internal_node_id":"0.0-241.0"},{"horizon":5,"rewards_L":[53,47,58,62,71],"rewards_R":[58,58,61,55,48],"key_presses":["arrowleft","arrowright","arrowleft","arrowright","arrowright"],"response_times":[413,385,364,513,1381],"outcomes":[53,58,58,55,48],"screen_resolution":1,"trial_type":"horizons-trial","trial_index":246,"time_elapsed":1483623,"internal_node_id":"0.0-242.0"},{"